"Time (s)","Acceleration x (m/s^2)","Acceleration y (m/s^2)","Acceleration z (m/s^2)"
0.000000000E0,-1.962127686E-1,8.231353760E-1,1.095195007E1
2.319336000E-3,-9.809875488E-2,8.494567871E-1,1.198565674E1
4.669189000E-3,-3.828430176E-2,8.374938965E-1,1.258624268E1
6.988525000E-3,-4.791259766E-3,8.087768555E-1,1.291645813E1
9.338378000E-3,-9.567260742E-3,7.513427734E-1,1.305284119E1
1.165771400E-2,2.395629883E-3,7.178497314E-1,1.304566956E1
1.400756800E-2,-7.171630859E-3,7.058868408E-1,1.290449524E1
1.632690400E-2,-6.939697266E-2,6.915283203E-1,1.268196106E1
1.867675700E-2,-1.531372070E-1,6.676025391E-1,1.237568665E1
2.102661100E-2,-2.679901123E-1,6.652069092E-1,1.205982971E1
2.334594700E-2,-4.139556885E-1,6.723785400E-1,1.171047974E1
2.569580000E-2,-5.670928955E-1,7.034912109E-1,1.133958435E1
2.801513600E-2,-7.298126221E-1,7.633056641E-1,1.096630859E1
3.036499000E-2,-8.853454590E-1,8.207397461E-1,1.058824158E1
3.268432600E-2,-1.012161255E0,8.638153076E-1,1.025085449E1
3.503417900E-2,-1.136596680E0,9.068756104E-1,9.927825928E0
3.738403300E-2,-1.217941284E0,9.571228027E-1,9.719650269E0
3.970336900E-2,-1.263412476E0,1.000198364E0,9.477966309E0
4.205322200E-2,-1.284942627E0,1.033706665E0,9.305694580E0
4.437255800E-2,-1.304092407E0,1.031311035E0,9.202789307E0
4.672241200E-2,-1.294509888E0,1.028915405E0,9.142974854E0
4.904174800E-2,-1.253845215E0,1.012161255E0,9.126220703E0
5.139160100E-2,-1.198806763E0,9.834442139E-1,9.116653442E0
5.371093700E-2,-1.124633789E0,9.308013916E-1,9.145370483E0
5.606079100E-2,-1.067199707E0,8.805541992E-1,9.176467896E0
5.841064400E-2,-9.954071045E-1,8.087768555E-1,9.214767456E0
6.072998000E-2,-9.475555420E-1,7.537384033E-1,9.243469238E0
6.307983400E-2,-9.068756104E-1,6.915283203E-1,9.250656128E0
6.539917000E-2,-8.733825684E-1,6.197357178E-1,9.260223389E0
6.774902300E-2,-8.446655273E-1,5.670928955E-1,9.279373169E0
7.006835900E-2,-8.398742676E-1,5.240325928E-1,9.284149170E0
7.241821200E-2,-8.422698975E-1,5.192413330E-1,9.262619019E0
7.476806600E-2,-8.590240479E-1,5.120697021E-1,9.265014648E0
7.708740200E-2,-8.614196777E-1,5.431671143E-1,9.241088867E0
7.943725500E-2,-8.757781982E-1,5.742797852E-1,9.202789307E0
8.175659100E-2,-8.973083496E-1,6.125640869E-1,9.171691895E0
8.410644500E-2,-9.284210205E-1,6.723785400E-1,9.133407593E0
8.642578100E-2,-9.499511719E-1,7.322082520E-1,9.090332031E0
8.877563400E-2,-9.762725830E-1,7.848510742E-1,9.030517578E0
9.109497000E-2,-9.954071045E-1,8.207397461E-1,8.980270386E0
9.344482400E-2,-1.004989624E0,8.638153076E-1,8.941986084E0
9.579467700E-2,-1.019348145E0,8.925170898E-1,8.915664673E0
9.811401300E-2,-1.021728516E0,9.116668701E-1,8.877365112E0
1.004638670E-1,-9.882354736E-1,9.260253906E-1,8.841476440E0
1.027832030E-1,-9.906311035E-1,9.475555420E-1,8.827117920E0
1.051330560E-1,-9.810638428E-1,9.451599121E-1,8.807983398E0
1.074523920E-1,-9.523468018E-1,9.427795410E-1,8.874984741E0
1.098022460E-1,-9.092712402E-1,9.284210205E-1,8.980270386E0
1.121520990E-1,-8.709869385E-1,9.092712402E-1,9.166900635E0
1.144714350E-1,-8.159484863E-1,8.901367188E-1,9.322433472E0
1.168212890E-1,-7.274169922E-1,8.614196777E-1,9.509078979E0
1.191406250E-1,-6.652069092E-1,8.398742676E-1,9.655044556E0
1.214904780E-1,-6.436767578E-1,8.063812256E-1,9.748352051E0
1.238098140E-1,-6.197357178E-1,7.848510742E-1,9.824935913E0
1.261596680E-1,-6.484527588E-1,7.585296631E-1,9.894317627E0
1.284790030E-1,-6.723785400E-1,7.369842529E-1,9.934997559E0
1.308288570E-1,-6.891326904E-1,6.939239502E-1,9.985244751E0
1.331481930E-1,-7.034912109E-1,6.652069092E-1,1.002592468E1
1.354980460E-1,-7.250213623E-1,6.436767578E-1,1.003311157E1
1.378479000E-1,-7.417755127E-1,6.029968262E-1,1.005464172E1
1.401672360E-1,-7.728881836E-1,5.934143066E-1,1.004985046E1
1.425170890E-1,-7.944183350E-1,5.670928955E-1,1.002592468E1
1.448364250E-1,-8.255310059E-1,5.623168945E-1,9.963714600E0
1.471862790E-1,-8.590240479E-1,5.599212646E-1,9.896713257E0
1.495056150E-1,-8.997039795E-1,5.718841553E-1,9.815353394E0
1.518554680E-1,-9.236297607E-1,5.383911133E-1,9.753143311E0
1.541748040E-1,-9.403839111E-1,5.551300049E-1,9.729217529E0
1.565246580E-1,-9.595184326E-1,5.503540039E-1,9.655044556E0
1.588745110E-1,-9.810638428E-1,5.455627441E-1,9.583251953E0
1.611938470E-1,-1.000198364E0,5.503540039E-1,9.518646240E0
1.635437010E-1,-1.012161255E0,5.790557861E-1,9.497116089E0
1.658630370E-1,-1.007385254E0,5.910339355E-1,9.451644897E0
1.682128900E-1,-1.019348145E0,6.101684570E-1,9.420547485E0
1.705322260E-1,-1.012161255E0,6.436767578E-1,9.399002075E0
1.728820800E-1,-1.014556885E0,6.676025391E-1,9.415756226E0
1.752014160E-1,-1.014556885E0,6.819610596E-1,9.394226074E0
1.775512690E-1,-1.007385254E0,7.034912109E-1,9.399002075E0
1.799011230E-1,-9.786682129E-1,7.202453613E-1,9.370300293E0
1.822204590E-1,-9.451599121E-1,7.034912109E-1,9.365509033E0
1.845703120E-1,-9.260253906E-1,7.010955811E-1,9.353546143E0
1.868896480E-1,-8.997039795E-1,6.939239502E-1,9.355941772E0
1.892395020E-1,-8.733825684E-1,6.891326904E-1,9.353546143E0
1.915588370E-1,-8.638153076E-1,6.652069092E-1,9.348754883E0
1.939086910E-1,-8.422698975E-1,6.508483887E-1,9.336791992E0
1.962280270E-1,-8.350982666E-1,6.508483887E-1,9.327224731E0
1.985778800E-1,-8.207397461E-1,6.532440186E-1,9.288940430E0
2.008972160E-1,-8.303070068E-1,6.436767578E-1,9.281753540E0
2.032470700E-1,-8.327026367E-1,6.436767578E-1,9.284149170E0
2.055969230E-1,-8.398742676E-1,6.556396484E-1,9.291336060E0
2.079162590E-1,-8.494567871E-1,6.532440186E-1,9.308074951E0
2.102661130E-1,-8.542327881E-1,6.628112793E-1,9.341583252E0
2.125854490E-1,-8.685913086E-1,6.556396484E-1,9.363113403E0
2.149353020E-1,-8.566284180E-1,6.771697998E-1,9.391830444E0
2.172546380E-1,-8.638153076E-1,6.652069092E-1,9.430114746E0
2.196044920E-1,-8.709869385E-1,6.628112793E-1,9.449264526E0
2.219543450E-1,-8.590240479E-1,6.436767578E-1,9.477966309E0
2.242736810E-1,-8.374938965E-1,6.316986084E-1,9.516250610E0
2.266235350E-1,-8.398742676E-1,6.101684570E-1,9.564117432E0
2.289428710E-1,-8.255310059E-1,5.766754150E-1,9.585647583E0
2.312927240E-1,-8.159484863E-1,5.551300049E-1,9.614364624E0
2.336120600E-1,-8.111724854E-1,5.407714844E-1,9.640686035E0
2.359619140E-1,-7.848510742E-1,5.479583740E-1,9.688537598E0
2.382812500E-1,-7.992095947E-1,5.383911133E-1,9.729217529E0
2.406311030E-1,-8.135528564E-1,5.240325928E-1,9.750747681E0
2.429809570E-1,-7.896270752E-1,5.192413330E-1,9.755538940E0
2.453002930E-1,-7.968139648E-1,5.359954834E-1,9.805786133E0
2.476501460E-1,-7.800598145E-1,5.240325928E-1,9.877578735E0
2.499694820E-1,-7.680969238E-1,5.168457031E-1,9.896713257E0
2.523193360E-1,-7.680969238E-1,5.120697021E-1,9.927825928E0
2.547302240E-1,-7.776641846E-1,5.216369629E-1,9.930221558E0
2.569885250E-1,-7.728881836E-1,5.144500732E-1,9.923034668E0
2.593078610E-1,-7.848510742E-1,5.001068115E-1,9.915863037E0
2.616577140E-1,-7.848510742E-1,4.881286621E-1,9.884750366E0
2.640075680E-1,-7.776641846E-1,4.929199219E-1,9.887145996E0
2.663269040E-1,-7.657012939E-1,5.001068115E-1,9.884750366E0
2.687072750E-1,-7.465667725E-1,5.048828125E-1,9.867996216E0
2.710266110E-1,-7.346038818E-1,5.359954834E-1,9.856033325E0
2.733764640E-1,-7.154541016E-1,5.407714844E-1,9.846466064E0
2.756958000E-1,-7.106628418E-1,5.431671143E-1,9.853637695E0
2.780456540E-1,-6.771697998E-1,5.575256348E-1,9.834503174E0
2.803649900E-1,-6.628112793E-1,5.575256348E-1,9.808181763E0
2.827148430E-1,-6.484527588E-1,5.575256348E-1,9.805786133E0
2.850341790E-1,-6.125640869E-1,5.670928955E-1,9.805786133E0
2.873840330E-1,-5.910339355E-1,5.742797852E-1,9.765106201E0
2.897338860E-1,-5.647125244E-1,5.599212646E-1,9.753143311E0
2.920532220E-1,-5.479583740E-1,5.479583740E-1,9.734008789E0
2.944030760E-1,-5.599212646E-1,5.335998535E-1,9.667007446E0
2.967224120E-1,-5.766754150E-1,5.527496338E-1,9.588043213E0
2.990722650E-1,-5.694885254E-1,5.599212646E-1,9.528213501E0
3.013916010E-1,-5.862426758E-1,5.742797852E-1,9.497116089E0
3.037414550E-1,-6.197357178E-1,5.886383057E-1,9.461227417E0
3.060607910E-1,-6.340942383E-1,5.814514160E-1,9.477966309E0
3.084106440E-1,-6.293182373E-1,5.814514160E-1,9.504287720E0
3.107299800E-1,-6.173553467E-1,5.838470459E-1,9.533004761E0
3.130798340E-1,-6.197357178E-1,6.077728271E-1,9.535400391E0
3.154296870E-1,-6.125640869E-1,6.125640869E-1,9.568893433E0
3.177490230E-1,-6.293182373E-1,6.053771973E-1,9.607177734E0
3.200683590E-1,-6.221313477E-1,6.149597168E-1,9.638290405E0
3.224182120E-1,-6.245269775E-1,6.149597168E-1,9.688537598E0
3.247680660E-1,-6.077728271E-1,6.269226074E-1,9.710067749E0
3.270874020E-1,-6.149597168E-1,6.077728271E-1,9.702896118E0
3.294372550E-1,-6.197357178E-1,5.958099365E-1,9.729217529E0
3.317565910E-1,-6.245269775E-1,5.623168945E-1,9.734008789E0
3.341064450E-1,-6.340942383E-1,5.455627441E-1,9.710067749E0
3.364257810E-1,-6.484527588E-1,5.288085938E-1,9.671783447E0
3.387756340E-1,-6.747741699E-1,5.240325928E-1,9.604797363E0
3.411254880E-1,-7.082824707E-1,5.216369629E-1,9.566513062E0
3.434448240E-1,-7.226257324E-1,5.192413330E-1,9.537796021E0
3.457946770E-1,-7.441711426E-1,5.192413330E-1,9.509078979E0
3.481140130E-1,-7.369842529E-1,5.168457031E-1,9.501892090E0
3.504638670E-1,-7.322082520E-1,5.001068115E-1,9.509078979E0
3.527832030E-1,-7.178497314E-1,5.335998535E-1,9.573684692E0
3.551330560E-1,-7.130584717E-1,5.383911133E-1,9.631118774E0
3.574523920E-1,-6.963043213E-1,5.359954834E-1,9.698104858E0
3.598022460E-1,-6.604156494E-1,5.575256348E-1,9.743576050E0
3.621215820E-1,-6.197357178E-1,5.670928955E-1,9.767501831E0
3.644714350E-1,-5.982055664E-1,5.766754150E-1,9.810577393E0
3.668212890E-1,-5.766754150E-1,5.814514160E-1,9.853637695E0
3.691406250E-1,-5.527496338E-1,5.814514160E-1,9.891921997E0
3.714904780E-1,-5.072784424E-1,5.838470459E-1,9.879959106E0
3.738098140E-1,-5.048828125E-1,5.982055664E-1,9.865615845E0
3.761596680E-1,-4.881286621E-1,5.910339355E-1,9.820144653E0
3.784790030E-1,-4.977111816E-1,5.982055664E-1,9.772293091E0
3.808288570E-1,-4.977111816E-1,5.790557861E-1,9.750747681E0
3.831481930E-1,-4.881286621E-1,5.910339355E-1,9.702896118E0
3.854980460E-1,-4.953155518E-1,5.982055664E-1,9.616760254E0
3.878479000E-1,-5.288085938E-1,5.934143066E-1,9.528213501E0
3.901672360E-1,-5.264282227E-1,5.910339355E-1,9.444473267E0
3.925170890E-1,-5.383911133E-1,5.790557861E-1,9.370300293E0
3.948364250E-1,-5.455627441E-1,5.934143066E-1,9.296112061E0
3.971862790E-1,-5.503540039E-1,6.077728271E-1,9.236297607E0
3.995056150E-1,-5.742797852E-1,5.958099365E-1,9.195617676E0
4.018554680E-1,-5.814514160E-1,6.101684570E-1,9.159729004E0
4.041748040E-1,-5.862426758E-1,6.029968262E-1,9.166900635E0
4.065246580E-1,-5.647125244E-1,6.173553467E-1,9.166900635E0
4.088439940E-1,-5.503540039E-1,6.101684570E-1,9.217147827E0
4.111938470E-1,-4.977111816E-1,6.364898682E-1,9.245864868E0
4.135437010E-1,-4.737854004E-1,6.269226074E-1,9.288940430E0
4.158630370E-1,-4.761657715E-1,6.269226074E-1,9.315261841E0
4.182128900E-1,-4.713897705E-1,6.316986084E-1,9.315261841E0
4.205322260E-1,-4.881286621E-1,6.197357178E-1,9.332015991E0
4.228820800E-1,-5.168457031E-1,5.934143066E-1,9.358322144E0
4.252014160E-1,-5.383911133E-1,5.838470459E-1,9.365509033E0
4.275512690E-1,-5.407714844E-1,5.934143066E-1,9.387039185E0
4.298706050E-1,-5.575256348E-1,5.886383057E-1,9.408584595E0
4.322204590E-1,-5.647125244E-1,5.814514160E-1,9.408584595E0
4.345703120E-1,-5.766754150E-1,5.694885254E-1,9.384643555E0
4.368896480E-1,-5.814514160E-1,5.694885254E-1,9.365509033E0
4.392395020E-1,-5.934143066E-1,5.766754150E-1,9.363113403E0
4.415588370E-1,-6.197357178E-1,5.910339355E-1,9.389434814E0
4.439086910E-1,-6.293182373E-1,5.790557861E-1,9.458831787E0
4.462280270E-1,-6.029968262E-1,5.694885254E-1,9.499511719E0
4.485778800E-1,-5.934143066E-1,5.623168945E-1,9.552154541E0
4.508972160E-1,-5.503540039E-1,5.527496338E-1,9.611968994E0
4.532470700E-1,-5.551300049E-1,5.383911133E-1,9.678970337E0
4.555664060E-1,-5.575256348E-1,5.383911133E-1,9.707687378E0
4.579162590E-1,-5.359954834E-1,5.144500732E-1,9.734008789E0
4.602661130E-1,-5.240325928E-1,4.905242920E-1,9.741180420E0
4.625854490E-1,-5.120697021E-1,4.737854004E-1,9.743576050E0
4.649353020E-1,-5.120697021E-1,4.665985107E-1,9.719650269E0
4.672546380E-1,-5.120697021E-1,4.761657715E-1,9.700500488E0
4.696044920E-1,-5.120697021E-1,4.737854004E-1,9.674179077E0
4.719238280E-1,-5.288085938E-1,4.713897705E-1,9.628723145E0
4.742736810E-1,-5.383911133E-1,4.713897705E-1,9.600006104E0
4.765930170E-1,-5.479583740E-1,4.809570312E-1,9.568893433E0
4.789428710E-1,-5.575256348E-1,4.905242920E-1,9.542572021E0
4.812927240E-1,-5.647125244E-1,4.977111816E-1,9.509078979E0
4.836120600E-1,-6.006011963E-1,5.312042236E-1,9.470794678E0
4.859619140E-1,-5.934143066E-1,5.431671143E-1,9.420547485E0
4.882812500E-1,-5.886383057E-1,5.647125244E-1,9.384643555E0
4.906311030E-1,-5.910339355E-1,5.647125244E-1,9.339187622E0
4.929504390E-1,-5.527496338E-1,5.694885254E-1,9.303298950E0
4.953002930E-1,-5.527496338E-1,5.886383057E-1,9.276977539E0
4.976196280E-1,-5.551300049E-1,5.982055664E-1,9.265014648E0
4.999694820E-1,-5.144500732E-1,5.910339355E-1,9.233901978E0
5.023193360E-1,-5.120697021E-1,5.910339355E-1,9.217147827E0
5.046386710E-1,-4.689941406E-1,5.934143066E-1,9.233901978E0
5.069885250E-1,-4.474639893E-1,5.958099365E-1,9.250656128E0
5.093078610E-1,-4.355010986E-1,5.910339355E-1,9.267395020E0
5.116577140E-1,-3.972015381E-1,5.766754150E-1,9.274581909E0
5.139770500E-1,-3.469543457E-1,5.742797852E-1,9.317657471E0
5.163269040E-1,-3.445739746E-1,5.455627441E-1,9.339187622E0
5.186462400E-1,-3.325958252E-1,5.240325928E-1,9.353546143E0
5.209960930E-1,-3.373870850E-1,5.096740723E-1,9.379867554E0
5.233154290E-1,-3.373870850E-1,5.072784424E-1,9.391830444E0
5.256652830E-1,-3.325958252E-1,5.048828125E-1,9.418151855E0
5.279846190E-1,-3.302154541E-1,4.785614014E-1,9.446868896E0
5.303344720E-1,-3.469543457E-1,5.024871826E-1,9.468399048E0
5.326843260E-1,-3.565368652E-1,5.096740723E-1,9.501892090E0
5.350036620E-1,-3.804626465E-1,5.120697021E-1,9.528213501E0
5.373535150E-1,-3.924255371E-1,5.288085938E-1,9.564117432E0
5.396728510E-1,-4.067840576E-1,5.216369629E-1,9.602401733E0
5.420227050E-1,-4.378814697E-1,5.240325928E-1,9.633499146E0
5.443420410E-1,-4.450683594E-1,5.192413330E-1,9.655044556E0
5.466918940E-1,-4.331054688E-1,5.096740723E-1,9.674179077E0
5.490112300E-1,-4.450683594E-1,5.168457031E-1,9.678970337E0
5.513610840E-1,-4.618072510E-1,5.144500732E-1,9.729217529E0
5.536804200E-1,-4.450683594E-1,4.929199219E-1,9.734008789E0
5.560607910E-1,-4.211425781E-1,4.833526611E-1,9.736389160E0
5.584106440E-1,-4.235229492E-1,4.618072510E-1,9.738784790E0
5.607299800E-1,-4.163513184E-1,4.737854004E-1,9.738784790E0
5.630798340E-1,-4.331054688E-1,4.642028809E-1,9.738784790E0
5.653991700E-1,-4.378814697E-1,4.618072510E-1,9.738784790E0
5.677490230E-1,-4.331054688E-1,4.881286621E-1,9.705291748E0
5.700683590E-1,-4.163513184E-1,4.953155518E-1,9.688537598E0
5.724182120E-1,-4.067840576E-1,5.048828125E-1,9.693328857E0
5.747375480E-1,-4.019927979E-1,5.120697021E-1,9.698104858E0
5.770874020E-1,-3.900299072E-1,5.168457031E-1,9.686141968E0
5.794372550E-1,-3.708801270E-1,4.905242920E-1,9.667007446E0
5.817565910E-1,-3.493499756E-1,4.642028809E-1,9.643081665E0
5.841064450E-1,-3.421783447E-1,4.665985107E-1,9.623931885E0
5.864257810E-1,-3.230285645E-1,4.570312500E-1,9.602401733E0
5.887756340E-1,-3.278198242E-1,4.618072510E-1,9.580856323E0
5.910949700E-1,-3.182525635E-1,4.570312500E-1,9.561721802E0
5.934448240E-1,-3.230285645E-1,4.570312500E-1,9.554534912E0
5.957641600E-1,-3.110656738E-1,4.474639893E-1,9.549758911E0
5.981140130E-1,-3.134613037E-1,4.378814697E-1,9.549758911E0
6.004333490E-1,-3.086700439E-1,4.450683594E-1,9.559326172E0
6.027832030E-1,-3.158569336E-1,4.474639893E-1,9.564117432E0
6.051025390E-1,-3.038940430E-1,4.402770996E-1,9.571289062E0
6.074523920E-1,-3.086700439E-1,4.307098389E-1,9.578475952E0
6.098022460E-1,-3.014984131E-1,4.139556885E-1,9.590438843E0
6.121215820E-1,-2.943115234E-1,3.924255371E-1,9.580856323E0
6.144714350E-1,-2.967071533E-1,4.091796875E-1,9.573684692E0
6.167907710E-1,-3.014984131E-1,4.235229492E-1,9.552154541E0
6.191406250E-1,-3.110656738E-1,4.426727295E-1,9.552154541E0
6.214599610E-1,-3.302154541E-1,4.378814697E-1,9.559326172E0
6.238098140E-1,-3.469543457E-1,4.355010986E-1,9.533004761E0
6.261291500E-1,-3.349914551E-1,4.307098389E-1,9.511474609E0
6.284790030E-1,-3.302154541E-1,4.283142090E-1,9.523437500E0
6.307983390E-1,-3.254241943E-1,4.283142090E-1,9.501892090E0
6.331481930E-1,-3.469543457E-1,4.331054688E-1,9.497116089E0
6.354980460E-1,-3.493499756E-1,4.402770996E-1,9.497116089E0
6.378173820E-1,-3.469543457E-1,4.522399902E-1,9.489929199E0
6.401672360E-1,-3.637084961E-1,4.426727295E-1,9.513870239E0
6.424865720E-1,-3.565368652E-1,4.426727295E-1,9.516250610E0
6.448364250E-1,-3.565368652E-1,4.307098389E-1,9.494720459E0
6.471557610E-1,-3.373870850E-1,4.115600586E-1,9.511474609E0
6.495056150E-1,-3.373870850E-1,3.876342773E-1,9.528213501E0
6.518249510E-1,-3.445739746E-1,3.708801270E-1,9.525833130E0
6.541748040E-1,-3.325958252E-1,3.613128662E-1,9.549758911E0
6.564941400E-1,-3.421783447E-1,3.565368652E-1,9.561721802E0
6.588439940E-1,-3.373870850E-1,3.349914551E-1,9.573684692E0
6.611938470E-1,-3.349914551E-1,3.014984131E-1,9.588043213E0
6.635131830E-1,-3.373870850E-1,2.991027832E-1,9.616760254E0
6.658630370E-1,-3.469543457E-1,3.038940430E-1,9.643081665E0
6.681823730E-1,-3.325958252E-1,2.895355225E-1,9.678970337E0
6.705322260E-1,-3.302154541E-1,2.991027832E-1,9.726821899E0
6.728515620E-1,-3.325958252E-1,2.871398926E-1,9.738784790E0
6.752014160E-1,-3.349914551E-1,2.895355225E-1,9.753143311E0
6.775207520E-1,-3.493499756E-1,2.943115234E-1,9.753143311E0
6.798706050E-1,-3.565368652E-1,3.086700439E-1,9.753143311E0
6.821899410E-1,-3.780670166E-1,3.110656738E-1,9.753143311E0
6.845397950E-1,-3.708801270E-1,3.134613037E-1,9.760330200E0
6.868896480E-1,-3.852386475E-1,3.278198242E-1,9.779464722E0
6.892089840E-1,-3.780670166E-1,3.469543457E-1,9.789031982E0
6.915588370E-1,-4.091796875E-1,3.349914551E-1,9.810577393E0
6.938781730E-1,-4.187469482E-1,3.469543457E-1,9.824935913E0
6.962280270E-1,-4.235229492E-1,3.637084961E-1,9.841674805E0
6.985473630E-1,-3.995971680E-1,3.732757568E-1,9.844070435E0
7.008972160E-1,-2.273254395E-1,3.684997559E-1,9.690933228E0
7.032165520E-1,5.024719238E-2,3.732757568E-1,9.310470581E0
7.055664060E-1,3.541412354E-1,3.756713867E-1,8.874984741E0
7.078857420E-1,6.580200195E-1,4.402770996E-1,8.386840820E0
7.102355950E-1,9.188385010E-1,5.120697021E-1,7.944168091E0
7.125854490E-1,1.052841187E0,6.077728271E-1,7.680953979E0
7.149047850E-1,1.103088379E0,7.010955811E-1,7.587646484E0
7.172546380E-1,1.052841187E0,7.848510742E-1,7.700103760E0
7.195739740E-1,9.762725830E-1,8.709869385E-1,7.960922241E0
7.219238280E-1,8.829498291E-1,9.403839111E-1,8.312667847E0
7.242431640E-1,7.346038818E-1,9.667053223E-1,8.685943604E0
7.265930170E-1,6.197357178E-1,9.523468018E-1,9.042480469E0
7.289123530E-1,5.048828125E-1,8.733825684E-1,9.315261841E0
7.312622070E-1,4.139556885E-1,7.728881836E-1,9.528213501E0
7.335815430E-1,2.919311523E-1,6.556396484E-1,9.671783447E0
7.359313960E-1,1.818542480E-1,5.359954834E-1,9.750747681E0
7.382507320E-1,5.024719238E-2,4.402770996E-1,9.800994873E0
7.406005860E-1,-6.221008301E-2,3.541412354E-1,9.882354736E0
7.429199210E-1,-2.057800293E-1,2.656097412E-1,9.961318970E0
7.452697750E-1,-3.014984131E-1,1.746826172E-1,1.003311157E1
7.476196280E-1,-3.828582764E-1,1.076812744E-1,1.009292603E1
7.499389640E-1,-4.331054688E-1,5.024719238E-2,1.015036011E1
7.522888180E-1,-4.570312500E-1,4.547119141E-2,1.017668152E1
7.546081540E-1,-4.355010986E-1,0.000000000E0,1.023889160E1
7.569580070E-1,-4.163513184E-1,-2.632141113E-2,1.026521301E1
7.592773430E-1,-4.067840576E-1,-4.547119141E-2,1.032263184E1
7.616271970E-1,-3.972015381E-1,-6.221008301E-2,1.038485718E1
7.639465330E-1,-3.780670166E-1,-5.264282227E-2,1.042074585E1
7.662963860E-1,-3.732757568E-1,-4.785156250E-2,1.043510437E1
7.686157220E-1,-3.852386475E-1,-3.588867188E-2,1.043988037E1
7.709655760E-1,-4.187469482E-1,-1.435852051E-2,1.043750000E1
7.732849120E-1,-4.259185791E-1,-7.171630859E-3,1.042552185E1
7.756347650E-1,-4.331054688E-1,1.914978027E-2,1.038963318E1
7.779541010E-1,-4.450683594E-1,4.067993164E-2,1.038485718E1
7.803039550E-1,-4.546356201E-1,4.307556152E-2,1.039442444E1
7.826538080E-1,-4.331054688E-1,4.785156250E-2,1.042314148E1
7.849731440E-1,-3.876342773E-1,4.547119141E-2,1.045184326E1
7.873229980E-1,-3.349914551E-1,4.307556152E-2,1.046620178E1
7.896423340E-1,-2.943115234E-1,4.547119141E-2,1.044946289E1
7.919921870E-1,-2.440643311E-1,2.392578125E-2,1.042791748E1
7.943115230E-1,-2.057800293E-1,1.196289062E-2,1.037287903E1
7.966613770E-1,-1.914215088E-1,2.153015137E-2,1.029393005E1
7.989807120E-1,-1.627044678E-1,1.196289062E-2,1.025564575E1
8.013305660E-1,-1.770629883E-1,4.791259766E-3,1.019821167E1
8.036804200E-1,-1.890258789E-1,4.791259766E-3,1.011685181E1
8.059997550E-1,-2.010040283E-1,3.588867188E-2,1.002592468E1
8.083496090E-1,-2.249298096E-1,4.785156250E-2,9.932601929E0
8.106689450E-1,-2.416687012E-1,6.221008301E-2,9.858428955E0
8.130187980E-1,-2.656097412E-1,9.332275391E-2,9.774673462E0
8.153381340E-1,-2.895355225E-1,9.332275391E-2,9.750747681E0
8.176879880E-1,-3.373870850E-1,1.220397949E-1,9.705291748E0
8.200073240E-1,-3.756713867E-1,1.340026855E-1,9.669403076E0
8.223571770E-1,-4.259185791E-1,1.411743164E-1,9.640686035E0
8.246765130E-1,-4.570312500E-1,1.459655762E-1,9.669403076E0
8.270263670E-1,-4.761657715E-1,1.674957275E-1,9.734008789E0
8.293762200E-1,-5.359954834E-1,1.435699463E-1,9.796218872E0
8.316955560E-1,-5.886383057E-1,1.028900146E-1,9.925430298E0
8.340454100E-1,-6.412811279E-1,4.785156250E-2,1.010728455E1
8.363647460E-1,-7.034912109E-1,2.153015137E-2,1.035853577E1
8.387145990E-1,-7.106628418E-1,-4.307556152E-2,1.058584595E1
8.410644530E-1,-6.556396484E-1,-7.417297363E-2,1.070549011E1
8.434143060E-1,-5.910339355E-1,-8.135986328E-2,1.072462463E1
8.457336420E-1,-5.383911133E-1,-7.417297363E-2,1.071028137E1
8.480834960E-1,-5.096740723E-1,-2.153015137E-2,1.054516602E1
8.504028320E-1,-4.833526611E-1,4.785156250E-2,1.028913879E1
8.527526850E-1,-4.474639893E-1,9.571838379E-2,9.987640381E0
8.550720210E-1,-4.259185791E-1,1.890258789E-1,9.743576050E0
8.574218750E-1,-4.331054688E-1,2.919311523E-1,9.535400391E0
8.597717280E-1,-4.426727295E-1,3.828582764E-1,9.437286377E0
8.620910640E-1,-4.259185791E-1,4.546356201E-1,9.446868896E0
8.644409180E-1,-3.589172363E-1,5.001068115E-1,9.504287720E0
8.667602530E-1,-2.679901123E-1,5.312042236E-1,9.573684692E0
8.691101070E-1,-1.794586182E-1,5.359954834E-1,9.647857666E0
8.714294430E-1,-1.100769043E-1,5.001068115E-1,9.678970337E0
8.737792960E-1,-3.111267090E-2,5.096740723E-1,9.690933228E0
8.760986320E-1,3.111267090E-2,5.168457031E-1,9.645462036E0
8.784484860E-1,1.914978027E-2,5.192413330E-1,9.621536255E0
8.807678220E-1,-2.632141113E-2,5.240325928E-1,9.635894775E0
8.831176750E-1,-6.700134277E-2,5.144500732E-1,9.647857666E0
8.854675290E-1,-1.052856445E-1,5.001068115E-1,9.700500488E0
8.877868650E-1,-1.363983154E-1,4.953155518E-1,9.712463379E0
8.901367180E-1,-1.076812744E-1,4.713897705E-1,9.676574707E0
8.924560540E-1,-7.417297363E-2,4.498443604E-1,9.590438843E0
8.948059080E-1,-2.871704102E-2,4.378814697E-1,9.475585938E0
8.971252440E-1,0.000000000E0,4.259185791E-1,9.358322144E0
8.994750970E-1,3.828430176E-2,4.259185791E-1,9.243469238E0
9.017944330E-1,4.785156250E-2,4.474639893E-1,9.209976196E0
9.041442870E-1,4.785156250E-2,4.642028809E-1,9.200408936E0
9.064636230E-1,6.460571289E-2,4.953155518E-1,9.250656128E0
9.088134760E-1,8.613586426E-2,5.359954834E-1,9.296112061E0
9.111633300E-1,1.172485352E-1,5.623168945E-1,9.315261841E0
9.134826660E-1,1.387786865E-1,5.647125244E-1,9.355941772E0
9.158325190E-1,1.555328369E-1,5.312042236E-1,9.365509033E0
9.181518550E-1,1.603240967E-1,5.144500732E-1,9.355941772E0
9.205017090E-1,1.818542480E-1,5.120697021E-1,9.332015991E0
9.228210450E-1,2.010040283E-1,4.833526611E-1,9.305694580E0
9.251708980E-1,2.081756592E-1,4.522399902E-1,9.291336060E0
9.274902340E-1,1.842498779E-1,4.402770996E-1,9.305694580E0
9.298400870E-1,1.651000977E-1,4.283142090E-1,9.317657471E0
9.321594230E-1,1.292114258E-1,3.972015381E-1,9.358322144E0
9.345092770E-1,9.809875488E-2,3.852386475E-1,9.401397705E0
9.368591300E-1,5.743408203E-2,3.613128662E-1,9.422943115E0
9.391784660E-1,4.785156250E-2,3.086700439E-1,9.425323486E0
9.415283200E-1,4.547119141E-2,2.679901123E-1,9.434906006E0
9.438476560E-1,3.828430176E-2,2.201385498E-1,9.439682007E0
9.461975090E-1,2.153015137E-2,1.770629883E-1,9.430114746E0
9.485168450E-1,1.914978027E-2,1.507415771E-1,9.403793335E0
9.508666990E-1,2.395629883E-3,1.244201660E-1,9.408584595E0
9.531860350E-1,7.171630859E-3,1.076812744E-1,9.413360596E0
9.555358880E-1,-7.171630859E-3,9.571838379E-2,9.444473267E0
9.578552240E-1,-1.196289062E-2,1.100769043E-1,9.487548828E0
9.602050780E-1,-2.871704102E-2,1.435699463E-1,9.525833130E0
9.625549310E-1,-3.588867188E-2,1.746826172E-1,9.597610474E0
9.648742670E-1,-6.460571289E-2,2.177429199E-1,9.671783447E0
9.672241210E-1,-5.743408203E-2,2.440643311E-1,9.748352051E0
9.695434570E-1,-6.939697266E-2,3.014984131E-1,9.800994873E0
9.718933100E-1,-5.024719238E-2,3.397827148E-1,9.894317627E0
9.742126460E-1,-5.981445312E-2,3.613128662E-1,9.966110229E0
9.765625000E-1,-6.700134277E-2,3.852386475E-1,1.001635742E1
9.788818360E-1,-5.981445312E-2,4.139556885E-1,1.002592468E1
9.812316890E-1,-6.700134277E-2,4.259185791E-1,1.003549194E1
9.835510250E-1,-5.743408203E-2,4.618072510E-1,1.004747009E1
9.859008780E-1,-5.743408203E-2,4.642028809E-1,1.006420898E1
9.882507320E-1,-2.871704102E-2,4.833526611E-1,1.007139587E1
9.905700680E-1,-1.675415039E-2,4.977111816E-1,1.008813477E1
9.929199210E-1,1.435852051E-2,4.953155518E-1,1.008335876E1
9.952392570E-1,3.349304199E-2,4.857482910E-1,1.007139587E1
9.975891110E-1,4.067993164E-2,4.642028809E-1,1.007377625E1
9.999084470E-1,4.785156250E-2,4.187469482E-1,1.006420898E1
1.002258300E0,4.785156250E-2,3.995971680E-1,1.006900024E1
1.004577636E0,4.785156250E-2,3.661041260E-1,1.005703735E1
1.006927490E0,4.785156250E-2,3.445739746E-1,1.003788757E1
1.009246826E0,4.785156250E-2,3.182525635E-1,1.001156616E1
1.011596679E0,4.785156250E-2,3.206329346E-1,9.963714600E0
1.013946533E0,4.785156250E-2,3.014984131E-1,9.942184448E0
1.016265869E0,4.785156250E-2,3.302154541E-1,9.896713257E0
1.018615722E0,4.785156250E-2,3.278198242E-1,9.860824585E0
1.020935058E0,4.785156250E-2,3.421783447E-1,9.817749023E0
1.023284912E0,4.785156250E-2,3.469543457E-1,9.784255981E0
1.025604248E0,4.785156250E-2,3.541412354E-1,9.769897461E0
1.027954101E0,4.785156250E-2,3.637084961E-1,9.755538940E0
1.030273437E0,4.785156250E-2,3.684997559E-1,9.753143311E0
1.032623291E0,4.785156250E-2,3.732757568E-1,9.757934570E0
1.034973144E0,4.785156250E-2,3.852386475E-1,9.753143311E0
1.037292480E0,4.785156250E-2,3.876342773E-1,9.765106201E0
1.039642334E0,4.547119141E-2,4.211425781E-1,9.789031982E0
1.041961670E0,4.067993164E-2,4.331054688E-1,9.805786133E0
1.044311523E0,2.632141113E-2,4.402770996E-1,9.815353394E0
1.046630859E0,-2.395629883E-3,4.331054688E-1,9.829711914E0
1.048980712E0,-7.171630859E-3,4.283142090E-1,9.836898804E0
1.051300048E0,-2.153015137E-2,4.283142090E-1,9.817749023E0
1.053649902E0,-1.914978027E-2,4.283142090E-1,9.793823242E0
1.055969238E0,-1.435852051E-2,4.163513184E-1,9.765106201E0
1.058319091E0,-3.349304199E-2,4.163513184E-1,9.753143311E0
1.060668945E0,-9.567260742E-3,4.139556885E-1,9.707687378E0
1.062988281E0,1.435852051E-2,4.211425781E-1,9.623931885E0
1.065338134E0,-1.914978027E-2,4.163513184E-1,9.537796021E0
1.067657470E0,-3.111267090E-2,4.235229492E-1,9.468399048E0
1.070007324E0,-1.435852051E-2,4.163513184E-1,9.432510376E0
1.072326660E0,9.567260742E-3,4.235229492E-1,9.375076294E0
1.074676513E0,4.785156250E-2,4.139556885E-1,9.327224731E0
1.076995849E0,4.785156250E-2,4.115600586E-1,9.300903320E0
1.079345703E0,5.743408203E-2,4.259185791E-1,9.310470581E0
1.081695556E0,7.177734375E-2,4.163513184E-1,9.332015991E0
1.084014892E0,9.092712402E-2,4.043884277E-1,9.360717773E0
1.086364746E0,1.100769043E-1,4.091796875E-1,9.425323486E0
1.088684082E0,1.100769043E-1,4.067840576E-1,9.513870239E0
1.091033935E0,1.028900146E-1,4.043884277E-1,9.595214844E0
1.093353271E0,8.375549316E-2,3.972015381E-1,9.688537598E0
1.095703125E0,6.700134277E-2,4.211425781E-1,9.753143311E0
1.098022461E0,4.785156250E-2,4.331054688E-1,9.793823242E0
1.100372314E0,4.785156250E-2,4.307098389E-1,9.841674805E0
1.102722168E0,4.785156250E-2,4.450683594E-1,9.846466064E0
1.105041503E0,2.871704102E-2,4.498443604E-1,9.848861694E0
1.107391357E0,9.567260742E-3,4.450683594E-1,9.817749023E0
1.109710693E0,2.153015137E-2,4.163513184E-1,9.829711914E0
1.112060546E0,9.567260742E-3,4.163513184E-1,9.805786133E0
1.114379882E0,2.153015137E-2,4.211425781E-1,9.834503174E0
1.116729736E0,3.828430176E-2,4.355010986E-1,9.824935913E0
1.119049072E0,4.785156250E-2,4.522399902E-1,9.832107544E0
1.121398925E0,4.785156250E-2,4.546356201E-1,9.848861694E0
1.123718261E0,4.785156250E-2,4.331054688E-1,9.846466064E0
1.126068115E0,5.024719238E-2,4.115600586E-1,9.824935913E0
1.128448486E0,5.024719238E-2,4.163513184E-1,9.822540283E0
1.130767822E0,5.264282227E-2,4.187469482E-1,9.798614502E0
1.133117675E0,4.785156250E-2,4.259185791E-1,9.791427612E0
1.135437011E0,4.785156250E-2,4.259185791E-1,9.777069092E0
1.137786865E0,4.785156250E-2,4.091796875E-1,9.753143311E0
1.140106201E0,2.871704102E-2,3.900299072E-1,9.745971680E0
1.142456054E0,-1.052856445E-1,3.732757568E-1,9.753143311E0
1.144805908E0,-3.445739746E-1,3.254241943E-1,9.841674805E0
1.147125244E0,-5.886383057E-1,2.656097412E-1,1.005943298E1
1.149475097E0,-5.910339355E-1,2.105712891E-1,1.020060730E1
1.151794433E0,-4.450683594E-1,2.129669189E-1,1.016709900E1
1.154144287E0,-2.392883301E-1,2.201385498E-1,1.002352905E1
1.156463623E0,-9.571838379E-2,2.727813721E-1,9.863220215E0
1.158813476E0,-3.349304199E-2,3.302154541E-1,9.753143311E0
1.161132812E0,-6.700134277E-2,4.019927979E-1,9.671783447E0
1.163482666E0,-1.411743164E-1,4.977111816E-1,9.602401733E0
1.165802002E0,-2.512512207E-1,5.718841553E-1,9.549758911E0
1.168151855E0,-3.517456055E-1,6.006011963E-1,9.516250610E0
1.170501709E0,-4.019927979E-1,6.125640869E-1,9.523437500E0
1.172821045E0,-4.091796875E-1,6.101684570E-1,9.559326172E0
1.175170898E0,-3.828582764E-1,5.838470459E-1,9.576080322E0
1.177490234E0,-3.230285645E-1,5.790557861E-1,9.631118774E0
1.179840087E0,-2.273254395E-1,5.431671143E-1,9.674179077E0
1.182159423E0,-1.507415771E-1,5.192413330E-1,9.690933228E0
1.184509277E0,-7.656860352E-2,4.857482910E-1,9.676574707E0
1.186828613E0,-7.171630859E-3,4.713897705E-1,9.664611816E0
1.189178466E0,4.547119141E-2,4.809570312E-1,9.650253296E0
1.191528320E0,4.785156250E-2,4.905242920E-1,9.635894775E0
1.193847656E0,6.221008301E-2,5.072784424E-1,9.602401733E0
1.196197509E0,7.656860352E-2,5.455627441E-1,9.561721802E0
1.198516845E0,7.656860352E-2,5.623168945E-1,9.521041870E0
1.200866699E0,6.939697266E-2,5.958099365E-1,9.509078979E0
1.203186035E0,5.503845215E-2,6.125640869E-1,9.501892090E0
1.205535888E0,4.785156250E-2,6.364898682E-1,9.511474609E0
1.207855224E0,4.785156250E-2,6.340942383E-1,9.501892090E0
1.210205078E0,5.024719238E-2,6.388854980E-1,9.487548828E0
1.212554931E0,7.417297363E-2,6.269226074E-1,9.461227417E0
1.214874267E0,9.332275391E-2,6.077728271E-1,9.403793335E0
1.217224121E0,1.363983154E-1,5.790557861E-1,9.367904663E0
1.219543457E0,1.818542480E-1,5.742797852E-1,9.336791992E0
1.221893310E0,2.153472900E-1,5.790557861E-1,9.308074951E0
1.224212646E0,2.225341797E-1,5.647125244E-1,9.284149170E0
1.226562500E0,2.895355225E-1,5.575256348E-1,9.190826416E0
1.228881836E0,3.445739746E-1,5.599212646E-1,9.121444702E0
1.231231689E0,3.780670166E-1,5.503540039E-1,9.028121948E0
1.233581543E0,4.235229492E-1,5.599212646E-1,8.946762085E0
1.235900878E0,4.235229492E-1,5.766754150E-1,8.891723633E0
1.238250732E0,4.474639893E-1,5.910339355E-1,8.855834961E0
1.240570068E0,4.355010986E-1,6.006011963E-1,8.817550659E0
1.242919921E0,4.665985107E-1,6.245269775E-1,8.779266357E0
1.245239257E0,5.168457031E-1,6.484527588E-1,8.767303467E0
1.247589111E0,5.407714844E-1,6.676025391E-1,8.760131836E0
1.249908447E0,5.575256348E-1,6.939239502E-1,8.774475098E0
1.252258300E0,5.718841553E-1,7.130584717E-1,8.824737549E0
1.254577636E0,5.910339355E-1,7.202453613E-1,8.901306152E0
1.256927490E0,5.623168945E-1,7.585296631E-1,8.953948975E0
1.259277343E0,5.599212646E-1,7.657012939E-1,9.013763428E0
1.261596679E0,5.455627441E-1,7.513427734E-1,9.037689209E0
1.264007568E0,5.407714844E-1,7.274169922E-1,9.059234619E0
1.266265869E0,5.144500732E-1,7.082824707E-1,9.109481812E0
1.268615722E0,4.618072510E-1,6.891326904E-1,9.159729004E0
1.270935058E0,3.995971680E-1,6.316986084E-1,9.195617676E0
1.273284912E0,3.278198242E-1,5.982055664E-1,9.231506348E0
1.275604248E0,2.632141113E-1,5.527496338E-1,9.279373169E0
1.277954101E0,1.794586182E-1,5.144500732E-1,9.353546143E0
1.280273437E0,1.603240967E-1,4.833526611E-1,9.391830444E0
1.282623291E0,1.651000977E-1,4.905242920E-1,9.384643555E0
1.284973144E0,1.627044678E-1,4.761657715E-1,9.420547485E0
1.287292480E0,1.555328369E-1,4.737854004E-1,9.489929199E0
1.289642334E0,1.459655762E-1,4.905242920E-1,9.528213501E0
1.291961670E0,1.292114258E-1,5.120697021E-1,9.592819214E0
1.294311523E0,1.387786865E-1,5.479583740E-1,9.643081665E0
1.296630859E0,1.555328369E-1,5.623168945E-1,9.681365967E0
1.298980712E0,1.627044678E-1,5.790557861E-1,9.690933228E0
1.301300048E0,1.555328369E-1,5.958099365E-1,9.705291748E0
1.303649902E0,1.459655762E-1,6.029968262E-1,9.698104858E0
1.305999755E0,1.411743164E-1,5.838470459E-1,9.690933228E0
1.308319091E0,1.363983154E-1,5.335998535E-1,9.669403076E0
1.310668945E0,1.340026855E-1,5.120697021E-1,9.631118774E0
1.312988281E0,1.292114258E-1,4.977111816E-1,9.592819214E0
1.315338134E0,1.268157959E-1,4.857482910E-1,9.559326172E0
1.317657470E0,1.196441650E-1,4.594268799E-1,9.511474609E0
1.320007324E0,1.268157959E-1,4.546356201E-1,9.449264526E0
1.322326660E0,1.172485352E-1,4.594268799E-1,9.367904663E0
1.324676513E0,1.363983154E-1,4.689941406E-1,9.339187622E0
1.326995849E0,1.387786865E-1,5.001068115E-1,9.317657471E0
1.329345703E0,1.722869873E-1,4.977111816E-1,9.284149170E0
1.331665039E0,1.890258789E-1,5.072784424E-1,9.267395020E0
1.334014892E0,2.153472900E-1,5.192413330E-1,9.281753540E0
1.336334228E0,2.249298096E-1,5.120697021E-1,9.305694580E0
1.338684082E0,2.177429199E-1,5.072784424E-1,9.353546143E0
1.341033935E0,2.129669189E-1,4.977111816E-1,9.418151855E0
1.343353271E0,2.201385498E-1,4.809570312E-1,9.489929199E0
1.345703125E0,2.201385498E-1,4.833526611E-1,9.566513062E0
1.348022461E0,1.962127686E-1,4.785614014E-1,9.655044556E0
1.350372314E0,1.722869873E-1,4.665985107E-1,9.719650269E0
1.352691650E0,1.722869873E-1,4.594268799E-1,9.755538940E0
1.355041503E0,1.531372070E-1,4.546356201E-1,9.772293091E0
1.357360839E0,1.483612061E-1,4.665985107E-1,9.803390503E0
1.359710693E0,1.459655762E-1,4.785614014E-1,9.858428955E0
1.362060546E0,1.531372070E-1,4.618072510E-1,9.856033325E0
1.364379882E0,1.411743164E-1,4.618072510E-1,9.870391846E0
1.366729736E0,1.340026855E-1,4.570312500E-1,9.899108887E0
1.369049072E0,1.292114258E-1,4.642028809E-1,9.915863037E0
1.371398925E0,1.292114258E-1,4.761657715E-1,9.956542969E0
1.373718261E0,1.483612061E-1,4.594268799E-1,9.980468750E0
1.376068115E0,1.746826172E-1,4.785614014E-1,9.973281860E0
1.378387451E0,1.722869873E-1,4.761657715E-1,9.949356079E0
1.380737304E0,1.603240967E-1,4.713897705E-1,9.951751709E0
1.383056640E0,1.531372070E-1,4.713897705E-1,9.923034668E0
1.385406494E0,1.483612061E-1,4.881286621E-1,9.918243408E0
1.387756347E0,1.244201660E-1,4.929199219E-1,9.913467407E0
1.390075683E0,7.177734375E-2,5.024871826E-1,9.899108887E0
1.392425537E0,5.024719238E-2,5.240325928E-1,9.923034668E0
1.394744873E0,4.785156250E-2,5.288085938E-1,9.920639038E0
1.397094726E0,4.067993164E-2,5.455627441E-1,9.915863037E0
1.399414062E0,4.547119141E-2,5.527496338E-1,9.896713257E0
1.401763916E0,4.785156250E-2,5.670928955E-1,9.841674805E0
1.404083252E0,4.785156250E-2,5.599212646E-1,9.800994873E0
1.406433105E0,4.785156250E-2,5.527496338E-1,9.762710571E0
1.408752441E0,4.785156250E-2,5.647125244E-1,9.745971680E0
1.411102295E0,4.547119141E-2,5.503540039E-1,9.674179077E0
1.413452148E0,4.785156250E-2,5.623168945E-1,9.623931885E0
1.415802002E0,4.547119141E-2,5.359954834E-1,9.559326172E0
1.418151855E0,3.588867188E-2,5.288085938E-1,9.499511719E0
1.420471191E0,4.785156250E-2,5.383911133E-1,9.461227417E0
1.422821045E0,4.785156250E-2,5.647125244E-1,9.422943115E0
1.425140380E0,4.785156250E-2,5.790557861E-1,9.379867554E0
1.427490234E0,4.785156250E-2,5.838470459E-1,9.332015991E0
1.429809570E0,4.785156250E-2,5.982055664E-1,9.305694580E0
1.432159423E0,4.785156250E-2,6.101684570E-1,9.288940430E0
1.434478759E0,4.785156250E-2,6.125640869E-1,9.332015991E0
1.436828613E0,4.785156250E-2,5.982055664E-1,9.360717773E0
1.439178466E0,4.547119141E-2,6.101684570E-1,9.408584595E0
1.441497802E0,2.392578125E-2,5.790557861E-1,9.446868896E0
1.443847656E0,2.392578125E-2,5.814514160E-1,9.504287720E0
1.446166992E0,2.632141113E-2,5.694885254E-1,9.568893433E0
1.448516845E0,4.067993164E-2,5.790557861E-1,9.623931885E0
1.450836181E0,3.111267090E-2,5.814514160E-1,9.669403076E0
1.453186035E0,2.632141113E-2,5.982055664E-1,9.719650269E0
1.455505371E0,3.111267090E-2,5.982055664E-1,9.745971680E0
1.457855224E0,3.349304199E-2,6.006011963E-1,9.753143311E0
1.460205078E0,4.785156250E-2,6.077728271E-1,9.757934570E0
1.462524414E0,4.785156250E-2,6.245269775E-1,9.765106201E0
1.464874267E0,4.785156250E-2,6.460571289E-1,9.789031982E0
1.467193603E0,4.547119141E-2,8.374938965E-1,9.844070435E0
1.469543457E0,4.785156250E-2,9.284210205E-1,9.860824585E0
1.471862793E0,4.785156250E-2,7.704925537E-1,9.827316284E0
1.474212646E0,4.785156250E-2,7.082824707E-1,9.774673462E0
1.476531982E0,4.785156250E-2,6.891326904E-1,9.765106201E0
1.478881836E0,5.024719238E-2,6.867370605E-1,9.765106201E0
1.481231689E0,6.700134277E-2,6.843414307E-1,9.800994873E0
1.483551025E0,5.743408203E-2,6.532440186E-1,9.800994873E0
1.485900878E0,6.700134277E-2,6.604156494E-1,9.779464722E0
1.488220214E0,9.332275391E-2,6.484527588E-1,9.765106201E0
1.490570068E0,1.483612061E-1,6.340942383E-1,9.755538940E0
1.492889404E0,1.914215088E-1,6.484527588E-1,9.753143311E0
1.495239257E0,1.890258789E-1,6.532440186E-1,9.748352051E0
1.497558593E0,2.010040283E-1,6.436767578E-1,9.741180420E0
1.499908447E0,2.033843994E-1,6.532440186E-1,9.731613159E0
1.502258300E0,1.890258789E-1,6.628112793E-1,9.686141968E0
1.504577636E0,1.387786865E-1,6.652069092E-1,9.657424927E0
1.506927490E0,1.340026855E-1,6.747741699E-1,9.623931885E0
1.509246826E0,1.148529053E-1,6.508483887E-1,9.590438843E0
1.511596679E0,9.809875488E-2,6.269226074E-1,9.564117432E0
1.513916015E0,6.221008301E-2,6.125640869E-1,9.571289062E0
1.516265869E0,5.024719238E-2,6.006011963E-1,9.568893433E0
1.518585205E0,4.785156250E-2,5.886383057E-1,9.571289062E0
1.520935058E0,4.785156250E-2,5.838470459E-1,9.571289062E0
1.523254394E0,4.785156250E-2,5.958099365E-1,9.597610474E0
1.525604248E0,4.785156250E-2,6.173553467E-1,9.607177734E0
1.527954101E0,4.785156250E-2,6.364898682E-1,9.628723145E0
1.530273437E0,4.785156250E-2,6.484527588E-1,9.659820557E0
1.532623291E0,4.785156250E-2,6.604156494E-1,9.678970337E0
1.534942627E0,4.785156250E-2,6.986999512E-1,9.705291748E0
1.537292480E0,4.785156250E-2,7.226257324E-1,9.710067749E0
1.539611816E0,4.785156250E-2,7.322082520E-1,9.717254639E0
1.541961670E0,4.785156250E-2,7.417755127E-1,9.726821899E0
1.544281005E0,4.547119141E-2,7.537384033E-1,9.698104858E0
1.546630859E0,4.307556152E-2,7.633056641E-1,9.700500488E0
1.548950195E0,2.632141113E-2,7.752685547E-1,9.690933228E0
1.551300048E0,3.588867188E-2,7.704925537E-1,9.688537598E0
1.553649902E0,3.588867188E-2,7.704925537E-1,9.655044556E0
1.555969238E0,3.588867188E-2,7.704925537E-1,9.626327515E0
1.558319091E0,3.828430176E-2,7.441711426E-1,9.578475952E0
1.560638427E0,2.392578125E-2,7.322082520E-1,9.549758911E0
1.562988281E0,3.349304199E-2,7.202453613E-1,9.528213501E0
1.565307617E0,3.828430176E-2,6.795654297E-1,9.513870239E0
1.567657470E0,3.588867188E-2,6.484527588E-1,9.504287720E0
1.569976806E0,4.785156250E-2,6.149597168E-1,9.521041870E0
1.572326660E0,4.785156250E-2,5.910339355E-1,9.533004761E0
1.574676513E0,4.785156250E-2,5.838470459E-1,9.535400391E0
1.576995849E0,4.307556152E-2,5.862426758E-1,9.521041870E0
1.579345703E0,1.675415039E-2,6.149597168E-1,9.504287720E0
1.581665039E0,-9.567260742E-3,6.316986084E-1,9.501892090E0
1.584014892E0,-2.153015137E-2,6.484527588E-1,9.506683350E0
1.586334228E0,-5.503845215E-2,6.676025391E-1,9.501892090E0
1.588684082E0,-5.981445312E-2,6.747741699E-1,9.525833130E0
1.591003418E0,-3.828430176E-2,6.939239502E-1,9.580856323E0
1.593353271E0,-4.791259766E-3,7.154541016E-1,9.640686035E0
1.595672607E0,1.435852051E-2,7.226257324E-1,9.664611816E0
1.598022461E0,2.871704102E-2,7.537384033E-1,9.669403076E0
1.600372314E0,3.588867188E-2,7.944183350E-1,9.633499146E0
1.602691650E0,4.307556152E-2,8.015899658E-1,9.580856323E0
1.605041503E0,4.547119141E-2,8.015899658E-1,9.511474609E0
1.607360839E0,4.785156250E-2,8.135528564E-1,9.422943115E0
1.609710693E0,5.024719238E-2,8.350982666E-1,9.360717773E0
1.612030029E0,6.939697266E-2,8.063812256E-1,9.288940430E0
1.614379882E0,5.024719238E-2,8.111724854E-1,9.332015991E0
1.616699218E0,4.307556152E-2,8.303070068E-1,9.399002075E0
1.619049072E0,-2.392578125E-2,8.350982666E-1,9.461227417E0
1.621398925E0,-8.135986328E-2,8.494567871E-1,9.492324829E0
1.623718261E0,-1.292114258E-1,8.446655273E-1,9.480361938E0
1.626068115E0,-1.627044678E-1,8.494567871E-1,9.466003418E0
1.628387451E0,-2.057800293E-1,8.183441162E-1,9.427719116E0
1.630737304E0,-2.344970703E-1,7.920227051E-1,9.379867554E0
1.633056640E0,-3.014984131E-1,7.417755127E-1,9.360717773E0
1.635406494E0,-3.684997559E-1,6.867370605E-1,9.355941772E0
1.637725830E0,-4.307098389E-1,6.364898682E-1,9.391830444E0
1.640075683E0,-5.001068115E-1,5.766754150E-1,9.461227417E0
1.642395019E0,-5.742797852E-1,5.216369629E-1,9.568893433E0
1.644744873E0,-6.197357178E-1,4.833526611E-1,9.712463379E0
1.647064209E0,-6.006011963E-1,4.546356201E-1,9.772293091E0
1.649414062E0,-5.790557861E-1,4.498443604E-1,9.923034668E0
1.651763916E0,-5.599212646E-1,4.474639893E-1,1.006900024E1
1.654083252E0,-5.647125244E-1,5.048828125E-1,1.019104004E1
1.656433105E0,-5.503540039E-1,5.288085938E-1,1.032263184E1
1.658752441E0,-3.708801270E-1,5.670928955E-1,1.040399170E1
1.661102295E0,-2.416687012E-1,5.670928955E-1,1.049971008E1
1.663421630E0,-3.517456055E-1,6.221313477E-1,1.056909180E1
1.665771484E0,-5.575256348E-1,6.699829102E-1,1.061695862E1
1.668182373E0,-7.010955811E-1,7.034912109E-1,1.064328003E1
1.670440673E0,-7.728881836E-1,7.369842529E-1,1.062413025E1
1.672790527E0,-6.245269775E-1,7.369842529E-1,1.051406860E1
1.675109863E0,-3.828582764E-1,6.412811279E-1,1.028674316E1
1.677459716E0,-6.077728271E-1,6.173553467E-1,1.030589294E1
1.679779052E0,-9.140625000E-1,6.436767578E-1,1.038006592E1
1.682128906E0,-1.186843872E0,6.628112793E-1,1.046142578E1
1.684448242E0,-1.361511230E0,6.628112793E-1,1.049971008E1
1.686798095E0,-1.495513916E0,6.245269775E-1,1.055235291E1
1.689117431E0,-1.581649780E0,5.694885254E-1,1.053799438E1
1.691467285E0,-1.615158081E0,5.144500732E-1,1.046142578E1
1.693817138E0,-1.610366821E0,4.594268799E-1,1.036091614E1
1.696136474E0,-1.517044067E0,4.115600586E-1,1.014796448E1
1.698486328E0,-1.320831299E0,3.780670166E-1,9.872787476E0
1.700836181E0,-4.594268799E-1,3.589172363E-1,9.363113403E0
1.703186035E0,3.012557983E0,4.977111816E-1,7.889129639E0
1.705505371E0,3.795013428E0,5.670928955E-1,7.216751099E0
1.707855224E0,3.491134644E0,6.939239502E-1,6.874572754E0
1.710174560E0,2.900100708E0,8.829498291E-1,6.625732422E0
1.712524414E0,2.299499512E0,1.158126831E0,6.309875488E0
1.714874267E0,1.811370850E0,1.462020874E0,5.972488403E0
1.717193603E0,1.430908203E0,1.691726685E0,5.836090088E0
1.719543457E0,1.083953857E0,1.837692261E0,5.883956909E0
1.721862793E0,7.657012939E-1,1.892715454E0,6.039489746E0
1.724212646E0,4.833526611E-1,1.875976562E0,6.324234009E0
1.726531982E0,2.321014404E-1,1.785049438E0,6.704696655E0
1.728881836E0,5.024719238E-2,1.646255493E0,7.180862427E0
1.731201171E0,-7.177734375E-2,1.500305176E0,7.721633911E0
1.733551025E0,-1.579284668E-1,1.330413818E0,8.367706299E0
1.735900878E0,-2.392883301E-1,1.150955200E0,9.011367798E0
1.738220214E0,-2.943115234E-1,9.738769531E-1,9.645462036E0
1.740570068E0,-3.206329346E-1,7.752685547E-1,1.017189026E1
1.742889404E0,-3.469543457E-1,6.388854980E-1,1.064805603E1
1.745239257E0,-3.517456055E-1,5.479583740E-1,1.099502563E1
1.747558593E0,-4.187469482E-1,4.881286621E-1,1.126062012E1
1.749908447E0,-5.240325928E-1,4.594268799E-1,1.142811584E1
1.752227783E0,-6.652069092E-1,4.977111816E-1,1.147358704E1
1.754577636E0,-8.255310059E-1,5.527496338E-1,1.146401978E1
1.756927490E0,-9.834442139E-1,6.269226074E-1,1.140179443E1
1.759246826E0,-1.127014160E0,7.082824707E-1,1.129412842E1
1.761596679E0,-1.246658325E0,7.872314453E-1,1.114816284E1
1.763916015E0,-1.351943970E0,8.805541992E-1,1.094955444E1
1.766265869E0,-1.404586792E0,9.738769531E-1,1.072702026E1
1.768585205E0,-1.433303833E0,1.062408447E0,1.049012756E1
1.770935058E0,-1.430908203E0,1.138977051E0,1.023410034E1
1.773254394E0,-1.387832642E0,1.172485352E0,9.980468750E0
1.775604248E0,-1.304092407E0,1.196411133E0,9.753143311E0
1.777923584E0,-1.237091064E0,1.210769653E0,9.576080322E0
1.780273437E0,-1.129409790E0,1.229904175E0,9.363113403E0
1.782623291E0,-1.009765625E0,1.237091064E0,9.181259155E0
1.784942627E0,-8.853454590E-1,1.237091064E0,9.023330688E0
1.787292480E0,-7.657012939E-1,1.229904175E0,8.920440674E0
1.789611816E0,-6.412811279E-1,1.227523804E0,8.836700439E0
1.791961670E0,-5.264282227E-1,1.227523804E0,8.791229248E0
1.794281005E0,-4.307098389E-1,1.249053955E0,8.798416138E0
1.796630859E0,-3.349914551E-1,1.237091064E0,8.848663330E0
1.798950195E0,-2.847442627E-1,1.258621216E0,8.910873413E0
1.801300048E0,-2.297058105E-1,1.265808105E0,8.970687866E0
1.803619384E0,-1.842498779E-1,1.253845215E0,9.071197510E0
1.805969238E0,-1.770629883E-1,1.275375366E0,9.166900635E0
1.808319091E0,-1.962127686E-1,1.282546997E0,9.248260498E0
1.810638427E0,-2.010040283E-1,1.261016846E0,9.284149170E0
1.812988281E0,-2.392883301E-1,1.249053955E0,9.341583252E0
1.815307617E0,-2.943115234E-1,1.265808105E0,9.399002075E0
1.817657470E0,-3.397827148E-1,1.256225586E0,9.430114746E0
1.819976806E0,-3.972015381E-1,1.256225586E0,9.456436157E0
1.822326660E0,-4.498443604E-1,1.263412476E0,9.463607788E0
1.824645996E0,-4.833526611E-1,1.244262695E0,9.492324829E0
1.826995849E0,-5.120697021E-1,1.225128174E0,9.494720459E0
1.829315185E0,-5.503540039E-1,1.217941284E0,9.492324829E0
1.831665039E0,-5.575256348E-1,1.205978394E0,9.509078979E0
1.833984375E0,-5.527496338E-1,1.186843872E0,9.516250610E0
1.836334228E0,-5.479583740E-1,1.182052612E0,9.537796021E0
1.838684082E0,-5.670928955E-1,1.189239502E0,9.552154541E0
1.841003418E0,-5.575256348E-1,1.186843872E0,9.556930542E0
1.843353271E0,-5.264282227E-1,1.170089722E0,9.566513062E0
1.845672607E0,-5.192413330E-1,1.141372681E0,9.590438843E0
1.848022461E0,-5.192413330E-1,1.131805420E0,9.631118774E0
1.850341796E0,-4.929199219E-1,1.115051270E0,9.698104858E0
1.852691650E0,-4.713897705E-1,1.110275269E0,9.753143311E0
1.855041503E0,-4.522399902E-1,1.103088379E0,9.781860352E0
1.857360839E0,-4.378814697E-1,1.098312378E0,9.839294434E0
1.859710693E0,-4.115600586E-1,1.091125488E0,9.930221558E0
1.862030029E0,-3.972015381E-1,1.076766968E0,1.001396179E1
1.864379882E0,-3.995971680E-1,1.069595337E0,1.010968018E1
1.866699218E0,-3.948211670E-1,1.033706665E0,1.019581604E1
1.869049072E0,-3.852386475E-1,1.028915405E0,1.026760864E1
1.871368408E0,-3.924255371E-1,1.021728516E0,1.033221436E1
1.873718261E0,-3.995971680E-1,1.007385254E0,1.040878296E1
1.876068115E0,-4.331054688E-1,1.016952515E0,1.045184326E1
1.878387451E0,-4.426727295E-1,1.002593994E0,1.049491882E1
1.880737304E0,-4.642028809E-1,9.738769531E-1,1.054995728E1
1.883056640E0,-4.881286621E-1,9.595184326E-1,1.059063721E1
1.885406494E0,-4.905242920E-1,9.595184326E-1,1.063609314E1
1.887725830E0,-5.048828125E-1,9.331970215E-1,1.067916870E1
1.890075683E0,-5.240325928E-1,9.164581299E-1,1.069113159E1
1.892395019E0,-5.599212646E-1,8.973083496E-1,1.073181152E1
1.894744873E0,-5.766754150E-1,8.877410889E-1,1.075334167E1
1.897064209E0,-5.694885254E-1,8.685913086E-1,1.077009583E1
1.899414062E0,-5.718841553E-1,8.709869385E-1,1.076530457E1
1.901763916E0,-5.814514160E-1,8.661956787E-1,1.074377441E1
1.904083252E0,-5.958099365E-1,8.590240479E-1,1.071745300E1
1.906433105E0,-6.125640869E-1,8.781585693E-1,1.069830322E1
1.908752441E0,-6.460571289E-1,8.925170898E-1,1.067916870E1
1.911102295E0,-6.556396484E-1,9.116668701E-1,1.063848877E1
1.913421630E0,-6.676025391E-1,9.308013916E-1,1.060499573E1
1.915771484E0,-6.460571289E-1,9.427795410E-1,1.054277039E1
1.918090820E0,-6.436767578E-1,9.738769531E-1,1.048056030E1
1.920440673E0,-6.460571289E-1,9.690856934E-1,1.041835022E1
1.922790527E0,-6.125640869E-1,9.954071045E-1,1.032502747E1
1.925109863E0,-5.862426758E-1,9.954071045E-1,1.022932434E1
1.927459716E0,-5.742797852E-1,9.906311035E-1,1.012881470E1
1.929779052E0,-5.455627441E-1,1.007385254E0,1.005464172E1
1.932128906E0,-5.312042236E-1,1.014556885E0,9.949356079E0
1.934448242E0,-5.168457031E-1,1.048049927E0,9.858428955E0
1.936798095E0,-4.809570312E-1,1.038482666E0,9.762710571E0
1.939117431E0,-4.785614014E-1,1.045669556E0,9.738784790E0
1.941467285E0,-4.570312500E-1,1.052841187E0,9.662216187E0
1.943786621E0,-4.498443604E-1,1.050445557E0,9.585647583E0
1.946136474E0,-4.498443604E-1,1.060012817E0,9.501892090E0
1.948455810E0,-4.163513184E-1,1.081558228E0,9.444473267E0
1.950805664E0,-4.331054688E-1,1.074371338E0,9.396621704E0
1.953125000E0,-4.331054688E-1,1.083953857E0,9.341583252E0
1.955474853E0,-4.618072510E-1,1.069595337E0,9.298507690E0
1.957824707E0,-4.857482910E-1,1.098312378E0,9.293716431E0
1.960144043E0,-5.001068115E-1,1.091125488E0,9.265014648E0
1.962493896E0,-5.096740723E-1,1.117446899E0,9.248260498E0
1.964813232E0,-5.120697021E-1,1.124633789E0,9.269790649E0
1.967163086E0,-5.192413330E-1,1.129409790E0,9.296112061E0
1.969482421E0,-5.359954834E-1,1.131805420E0,9.322433472E0
1.971832275E0,-5.240325928E-1,1.129409790E0,9.343978882E0
1.974151611E0,-5.048828125E-1,1.138977051E0,9.372680664E0
1.976501464E0,-4.833526611E-1,1.150955200E0,9.413360596E0
1.978851318E0,-4.570312500E-1,1.162918091E0,9.415756226E0
1.981170654E0,-4.259185791E-1,1.155731201E0,9.432510376E0
1.983520507E0,-4.235229492E-1,1.153335571E0,9.430114746E0
1.985870361E0,-4.091796875E-1,1.165298462E0,9.442077637E0
1.988220214E0,-3.828582764E-1,1.162918091E0,9.434906006E0
1.990539550E0,-3.900299072E-1,1.174880981E0,9.413360596E0
1.992889404E0,-3.780670166E-1,1.170089722E0,9.410964966E0
1.995239257E0,-3.541412354E-1,1.165298462E0,9.415756226E0
1.997558593E0,-3.565368652E-1,1.174880981E0,9.406188965E0
1.999908447E0,-3.565368652E-1,1.172485352E0,9.403793335E0
2.002227783E0,-3.325958252E-1,1.160522461E0,9.406188965E0
2.004577636E0,-3.421783447E-1,1.153335571E0,9.406188965E0
2.006896972E0,-3.349914551E-1,1.136596680E0,9.420547485E0
2.009246826E0,-3.230285645E-1,1.138977051E0,9.442077637E0
2.011566162E0,-3.206329346E-1,1.143768311E0,9.461227417E0
2.013916015E0,-3.110656738E-1,1.143768311E0,9.487548828E0
2.016235351E0,-2.919311523E-1,1.124633789E0,9.504287720E0
2.018585205E0,-2.823486328E-1,1.131805420E0,9.535400391E0
2.020935058E0,-2.871398926E-1,1.131805420E0,9.530609131E0
2.023254394E0,-2.679901123E-1,1.136596680E0,9.573684692E0
2.025604248E0,-2.656097412E-1,1.143768311E0,9.597610474E0
2.027923584E0,-2.536315918E-1,1.138977051E0,9.628723145E0
2.030273437E0,-2.632141113E-1,1.143768311E0,9.693328857E0
2.032592773E0,-2.464599609E-1,1.170089722E0,9.717254639E0
2.034942627E0,-2.225341797E-1,1.167694092E0,9.719650269E0
2.037261962E0,-2.249298096E-1,1.167694092E0,9.724426270E0
2.039611816E0,-2.129669189E-1,1.158126831E0,9.719650269E0
2.041931152E0,-2.033843994E-1,1.148559570E0,9.707687378E0
2.044281005E0,-2.081756592E-1,1.153335571E0,9.707687378E0
2.046630859E0,-1.962127686E-1,1.167694092E0,9.695724487E0
2.048950195E0,-2.010040283E-1,1.150955200E0,9.674179077E0
2.051300048E0,-2.010040283E-1,1.155731201E0,9.676574707E0
2.053619384E0,-2.081756592E-1,1.138977051E0,9.681365967E0
2.055969238E0,-1.842498779E-1,1.165298462E0,9.690933228E0
2.058288574E0,-1.818542480E-1,1.191619873E0,9.722045898E0
2.060638427E0,-1.746826172E-1,1.227523804E0,9.712463379E0
2.062957763E0,-1.603240967E-1,1.234695435E0,9.734008789E0
2.065307617E0,-1.292114258E-1,1.249053955E0,9.731613159E0
2.067657470E0,-9.571838379E-2,1.263412476E0,9.731613159E0
2.069976806E0,-5.981445312E-2,1.268188477E0,9.726821899E0
2.072387695E0,-1.196289062E-2,1.292129517E0,9.717254639E0
2.074645996E0,2.632141113E-2,1.301696777E0,9.695724487E0
2.076995849E0,4.785156250E-2,1.323226929E0,9.667007446E0
2.079315185E0,7.417297363E-2,1.308868408E0,9.655044556E0
2.081665039E0,1.148529053E-1,1.323226929E0,9.600006104E0
2.083984375E0,1.627044678E-1,1.332809448E0,9.542572021E0
2.086334228E0,2.010040283E-1,1.354339600E0,9.513870239E0
2.088684082E0,2.464599609E-1,1.373474121E0,9.482757568E0
2.091003418E0,2.919311523E-1,1.392623901E0,9.458831787E0
2.093353271E0,3.325958252E-1,1.404586792E0,9.418151855E0
2.095672607E0,3.493499756E-1,1.426116943E0,9.391830444E0
2.098022461E0,3.828582764E-1,1.452438354E0,9.353546143E0
2.100341796E0,4.163513184E-1,1.466796875E0,9.320037842E0
2.102691650E0,4.546356201E-1,1.478759766E0,9.291336060E0
2.105010986E0,5.048828125E-1,1.485946655E0,9.250656128E0
2.107360839E0,5.240325928E-1,1.493118286E0,9.214767456E0
2.109710693E0,5.359954834E-1,1.493118286E0,9.200408936E0
2.112030029E0,5.814514160E-1,1.497909546E0,9.176467896E0
2.114379882E0,5.958099365E-1,1.500305176E0,9.152542114E0
2.116699218E0,6.173553467E-1,1.519439697E0,9.133407593E0
2.119049072E0,6.412811279E-1,1.529006958E0,9.121444702E0
2.121368408E0,6.364898682E-1,1.524230957E0,9.073577881E0
2.123718261E0,6.484527588E-1,1.529006958E0,9.071197510E0
2.126037597E0,6.532440186E-1,1.524230957E0,9.047256470E0
2.128387451E0,6.556396484E-1,1.531402588E0,9.030517578E0
2.130706787E0,6.508483887E-1,1.536193848E0,9.016159058E0
2.133056640E0,6.580200195E-1,1.536193848E0,9.001800537E0
2.135406494E0,6.484527588E-1,1.550552368E0,8.994613647E0
2.137725830E0,6.460571289E-1,1.543365479E0,8.958724976E0
2.140075683E0,6.388854980E-1,1.533798218E0,8.977874756E0
2.142395019E0,6.316986084E-1,1.557723999E0,8.968292236E0
2.144744873E0,6.316986084E-1,1.560119629E0,8.949157715E0
2.147064209E0,6.364898682E-1,1.564910889E0,8.953948975E0
2.149414062E0,6.364898682E-1,1.567306519E0,8.977874756E0
2.151733398E0,6.197357178E-1,1.574478149E0,8.985046387E0
2.154083252E0,6.077728271E-1,1.579269409E0,8.987442017E0
2.156433105E0,5.958099365E-1,1.603195190E0,9.013763428E0
2.158752441E0,5.958099365E-1,1.619934082E0,9.028121948E0
2.161102295E0,5.862426758E-1,1.615158081E0,9.054443359E0
2.163421630E0,5.862426758E-1,1.627120972E0,9.068801880E0
2.165771484E0,6.053771973E-1,1.631912231E0,9.075973511E0
2.168090820E0,6.029968262E-1,1.636688232E0,9.073577881E0
2.170440673E0,6.006011963E-1,1.667800903E0,9.080764771E0
2.172760009E0,5.958099365E-1,1.679763794E0,9.083160400E0
2.175109863E0,5.910339355E-1,1.686935425E0,9.102294922E0
2.177459716E0,5.982055664E-1,1.686935425E0,9.099899292E0
2.179779052E0,5.982055664E-1,1.682159424E0,9.126220703E0
2.182128906E0,5.886383057E-1,1.698898315E0,9.126220703E0
2.184448242E0,6.029968262E-1,1.698898315E0,9.145370483E0
2.186798095E0,5.910339355E-1,1.715652466E0,9.186050415E0
2.189117431E0,5.862426758E-1,1.706085205E0,9.207580566E0
2.191467285E0,5.862426758E-1,1.706085205E0,9.253051758E0
2.193786621E0,5.670928955E-1,1.689331055E0,9.286544800E0
2.196136474E0,5.694885254E-1,1.706085205E0,9.334396362E0
2.198455810E0,5.718841553E-1,1.708480835E0,9.353546143E0
2.200805664E0,5.599212646E-1,1.710861206E0,9.394226074E0
2.203155517E0,5.455627441E-1,1.727615356E0,9.430114746E0
2.205474853E0,5.527496338E-1,1.734802246E0,9.466003418E0
2.207824707E0,5.479583740E-1,1.722839355E0,9.509078979E0
2.210144043E0,5.623168945E-1,1.730010986E0,9.540191650E0
2.212493896E0,5.647125244E-1,1.732406616E0,9.573684692E0
2.214813232E0,5.575256348E-1,1.727615356E0,9.595214844E0
2.217163086E0,5.623168945E-1,1.737182617E0,9.633499146E0
2.219482421E0,5.670928955E-1,1.732406616E0,9.633499146E0
2.221832275E0,5.742797852E-1,1.732406616E0,9.635894775E0
2.224151611E0,5.718841553E-1,1.739578247E0,9.647857666E0
2.226501464E0,5.647125244E-1,1.746765137E0,9.662216187E0
2.228820800E0,5.742797852E-1,1.761123657E0,9.652648926E0
2.231170654E0,5.766754150E-1,1.773086548E0,9.664611816E0
2.233520507E0,5.742797852E-1,1.801788330E0,9.645462036E0
2.235839843E0,5.790557861E-1,1.818542480E0,9.638290405E0
2.238189697E0,5.814514160E-1,1.837692261E0,9.602401733E0
2.240509033E0,5.814514160E-1,1.868789673E0,9.614364624E0
2.242858886E0,5.599212646E-1,1.895111084E0,9.568893433E0
2.245178222E0,5.575256348E-1,1.911865234E0,9.542572021E0
2.247528076E0,5.718841553E-1,1.923828125E0,9.511474609E0
2.249847412E0,5.623168945E-1,1.959716797E0,9.451644897E0
2.252197265E0,5.599212646E-1,1.976470947E0,9.410964966E0
2.254516601E0,5.455627441E-1,1.986038208E0,9.355941772E0
2.256866455E0,5.503540039E-1,2.017150879E0,9.315261841E0
2.259216308E0,5.599212646E-1,2.029113770E0,9.267395020E0
2.261535644E0,5.479583740E-1,2.036285400E0,9.219543457E0
2.263885498E0,5.694885254E-1,2.067398071E0,9.166900635E0
2.266204834E0,5.910339355E-1,2.103286743E0,9.109481812E0
2.268554687E0,6.101684570E-1,2.110473633E0,9.047256470E0
2.270874023E0,6.125640869E-1,2.110473633E0,8.975479126E0
2.273254394E0,6.077728271E-1,2.132003784E0,8.908477783E0
2.275573730E0,6.221313477E-1,2.148757935E0,8.824737549E0
2.277923584E0,6.412811279E-1,2.170288086E0,8.752944946E0
2.280242920E0,6.484527588E-1,2.201400757E0,8.705093384E0
2.282592773E0,6.556396484E-1,2.222930908E0,8.640487671E0
2.284912109E0,6.580200195E-1,2.230117798E0,8.587844849E0
2.287261962E0,6.676025391E-1,2.244461060E0,8.544769287E0
2.289611816E0,6.723785400E-1,2.256439209E0,8.520843506E0
2.291931152E0,6.723785400E-1,2.277969360E0,8.487335205E0
2.294281005E0,6.867370605E-1,2.301895142E0,8.461029053E0
2.296600341E0,7.010955811E-1,2.301895142E0,8.425125122E0
2.298950195E0,7.130584717E-1,2.340179443E0,8.384445190E0
2.301269531E0,7.034912109E-1,2.340179443E0,8.355743408E0
2.303619384E0,6.963043213E-1,2.371292114E0,8.341384888E0
2.305938720E0,6.963043213E-1,2.404785156E0,8.358123779E0
2.308288574E0,6.699829102E-1,2.423934937E0,8.391632080E0
2.310607910E0,6.460571289E-1,2.435897827E0,8.413162231E0
2.312957763E0,6.532440186E-1,2.466995239E0,8.427520752E0
2.315307617E0,6.915283203E-1,2.476577759E0,8.463409424E0
2.317626953E0,7.058868408E-1,2.493316650E0,8.494522095E0
2.319976806E0,7.202453613E-1,2.488540649E0,8.537597656E0
2.322296142E0,7.465667725E-1,2.488540649E0,8.585449219E0
2.324645996E0,7.800598145E-1,2.498107910E0,8.626129150E0
2.326965332E0,8.255310059E-1,2.526824951E0,8.695510864E0
2.329315185E0,8.111724854E-1,2.533996582E0,8.757736206E0
2.331634521E0,7.872314453E-1,2.555541992E0,8.764907837E0
2.333984375E0,7.274169922E-1,2.577072144E0,8.733810425E0
2.336303711E0,6.795654297E-1,2.605789185E0,8.714660645E0
2.338653564E0,6.676025391E-1,2.605789185E0,8.740982056E0
2.341003418E0,6.891326904E-1,2.620147705E0,8.810379028E0
2.343322753E0,7.130584717E-1,2.624923706E0,8.896514893E0
2.345642089E0,7.226257324E-1,2.612960815E0,8.965911865E0
2.347991943E0,7.346038818E-1,2.612960815E0,9.064010620E0
2.350341796E0,7.537384033E-1,2.603393555E0,9.145370483E0
2.352661132E0,7.633056641E-1,2.612960815E0,9.238693237E0
2.355010986E0,7.992095947E-1,2.600997925E0,9.300903320E0
2.357330322E0,8.997039795E-1,2.644073486E0,9.358322144E0
2.359680175E0,1.136596680E0,2.751739502E0,9.477966309E0
2.361999511E0,1.265808105E0,2.744567871E0,9.722045898E0
2.364349365E0,1.244262695E0,2.727813721E0,9.755538940E0
2.366668701E0,1.105484009E0,2.746963501E0,9.688537598E0
2.369018554E0,9.571228027E-1,2.768493652E0,9.530609131E0
2.371368408E0,8.877410889E-1,2.778060913E0,9.480361938E0
2.373687744E0,8.685913086E-1,2.773284912E0,9.492324829E0
2.376037597E0,8.709869385E-1,2.778060913E0,9.523437500E0
2.378356933E0,9.164581299E-1,2.804382324E0,9.537796021E0
2.380706787E0,9.738769531E-1,2.809173584E0,9.580856323E0
2.383026123E0,1.052841187E0,2.809173584E0,9.628723145E0
2.385375976E0,1.138977051E0,2.806777954E0,9.686141968E0
2.387695312E0,1.203582764E0,2.797210693E0,9.748352051E0
2.390045166E0,1.241882324E0,2.809173584E0,9.772293091E0
2.392364502E0,1.292129517E0,2.806777954E0,9.846466064E0
2.394714355E0,1.320831299E0,2.794815063E0,9.923034668E0
2.397064209E0,1.330413818E0,2.766098022E0,9.997207642E0
2.399383545E0,1.328018188E0,2.746963501E0,1.003788757E1
2.401733398E0,1.308868408E0,2.718246460E0,1.006420898E1
2.404052734E0,1.299301147E0,2.699096680E0,1.007139587E1
2.406402587E0,1.308868408E0,2.636886597E0,1.005943298E1
2.408721923E0,1.301696777E0,2.605789185E0,1.002592468E1
2.411071777E0,1.294509888E0,2.557922363E0,1.002352905E1
2.413391113E0,1.284942627E0,2.526824951E0,1.001156616E1
2.415740966E0,1.282546997E0,2.498107910E0,9.994827271E0
2.418090820E0,1.272979736E0,2.478958130E0,9.975677490E0
2.420410156E0,1.261016846E0,2.481353760E0,9.956542969E0
2.422760009E0,1.244262695E0,2.488540649E0,9.932601929E0
2.425079345E0,1.198806763E0,2.502899170E0,9.927825928E0
2.427429199E0,1.158126831E0,2.519638062E0,9.920639038E0
2.429748535E0,1.117446899E0,2.548355103E0,9.942184448E0
2.432098388E0,1.103088379E0,2.550750732E0,9.975677490E0
2.434417724E0,1.119842529E0,2.550750732E0,9.990036011E0
2.436767578E0,1.146163940E0,2.572280884E0,1.002114868E1
2.439086914E0,1.150955200E0,2.581863403E0,1.005464172E1
2.441436767E0,1.194015503E0,2.593826294E0,1.010009766E1
2.443786621E0,1.452438354E0,2.627319336E0,1.018864441E1
2.446105957E0,1.529006958E0,2.644073486E0,1.024606323E1
2.448455810E0,1.485946655E0,2.622528076E0,1.026760864E1
2.450775146E0,1.430908203E0,2.622528076E0,1.027478027E1
2.453125000E0,1.351943970E0,2.591430664E0,1.027717590E1
2.455444336E0,1.270584106E0,2.574676514E0,1.029153442E1
2.457794189E0,1.174880981E0,2.579467773E0,1.028195190E1
2.460144043E0,1.031311035E0,2.577072144E0,1.025085449E1
2.462463378E0,8.781585693E-1,2.579467773E0,1.019581604E1
2.464813232E0,7.441711426E-1,2.567504883E0,1.015274048E1
2.467132568E0,6.125640869E-1,2.567504883E0,1.009771729E1
2.469482421E0,5.120697021E-1,2.548355103E0,1.005464172E1
2.471801757E0,4.450683594E-1,2.557922363E0,1.004028320E1
2.474151611E0,4.307098389E-1,2.557922363E0,1.002592468E1
2.476562500E0,4.139556885E-1,2.541183472E0,1.002114868E1
2.478820800E0,4.307098389E-1,2.529220581E0,1.004985046E1
2.481170654E0,4.498443604E-1,2.512466431E0,1.006660461E1
2.483489990E0,4.905242920E-1,2.507675171E0,1.005703735E1
2.485839843E0,5.312042236E-1,2.481353760E0,1.006660461E1
2.488159179E0,5.718841553E-1,2.483749390E0,1.006900024E1
2.490509033E0,6.006011963E-1,2.462219238E0,1.006660461E1
2.492828369E0,6.364898682E-1,2.464614868E0,1.006420898E1
2.495178222E0,6.771697998E-1,2.464614868E0,1.006420898E1
2.497497558E0,7.058868408E-1,2.466995239E0,1.004028320E1
2.499847412E0,7.537384033E-1,2.481353760E0,1.001635742E1
2.502166748E0,7.657012939E-1,2.469390869E0,9.997207642E0
2.504516601E0,7.800598145E-1,2.459823608E0,9.958923340E0
2.506866455E0,7.800598145E-1,2.438293457E0,9.911071777E0
2.509185791E0,7.872314453E-1,2.423934937E0,9.877578735E0
2.511535644E0,7.848510742E-1,2.404785156E0,9.846466064E0
2.513854980E0,7.728881836E-1,2.402389526E0,9.853637695E0
2.516204834E0,7.776641846E-1,2.399993896E0,9.839294434E0
2.518524170E0,7.657012939E-1,2.383255005E0,9.839294434E0
2.520874023E0,7.513427734E-1,2.352142334E0,9.839294434E0
2.523193359E0,7.680969238E-1,2.335388184E0,9.844070435E0
2.525543212E0,7.848510742E-1,2.335388184E0,9.844070435E0
2.527893066E0,7.944183350E-1,2.328216553E0,9.858428955E0
2.530212402E0,8.422698975E-1,2.299499512E0,9.889541626E0
2.532562255E0,8.949127197E-1,2.268402100E0,9.879959106E0
2.534881591E0,9.547424316E-1,2.232498169E0,9.867996216E0
2.537231445E0,9.882354736E-1,2.225326538E0,9.841674805E0
2.539550781E0,1.004989624E0,2.244461060E0,9.796218872E0
2.541900634E0,9.714813232E-1,2.285140991E0,9.760330200E0
2.544219970E0,9.571228027E-1,2.330612183E0,9.753143311E0
2.546569824E0,9.331970215E-1,2.349746704E0,9.722045898E0
2.548889160E0,9.164581299E-1,2.409576416E0,9.681365967E0
2.551239013E0,9.331970215E-1,2.459823608E0,9.623931885E0
2.553558349E0,9.571228027E-1,2.466995239E0,9.535400391E0
2.555908203E0,9.738769531E-1,2.450256348E0,9.449264526E0
2.558258056E0,9.834442139E-1,2.419143677E0,9.391830444E0
2.560607910E0,9.714813232E-1,2.397613525E0,9.308074951E0
2.562957763E0,9.355926514E-1,2.383255005E0,9.250656128E0
2.565277099E0,8.853454590E-1,2.371292114E0,9.224334717E0
2.567626953E0,8.446655273E-1,2.328216553E0,9.202789307E0
2.569946289E0,8.063812256E-1,2.285140991E0,9.178863525E0
2.572296142E0,7.848510742E-1,2.282745361E0,9.169296265E0
2.574615478E0,7.704925537E-1,2.254043579E0,9.171691895E0
2.576965332E0,7.968139648E-1,2.222930908E0,9.176467896E0
2.579284668E0,7.848510742E-1,2.187042236E0,9.178863525E0
2.581634521E0,7.968139648E-1,2.151153564E0,9.183654785E0
2.583953857E0,7.824554443E-1,2.124832153E0,9.229110718E0
2.586303711E0,7.728881836E-1,2.103286743E0,9.284149170E0
2.588623046E0,7.824554443E-1,2.108078003E0,9.308074951E0
2.590972900E0,7.585296631E-1,2.108078003E0,9.320037842E0
2.593322753E0,7.465667725E-1,2.115249634E0,9.324829102E0
2.595642089E0,7.393798828E-1,2.115249634E0,9.310470581E0
2.597991943E0,7.082824707E-1,2.112869263E0,9.262619019E0
2.600311279E0,6.747741699E-1,2.127212524E0,9.238693237E0
2.602661132E0,6.460571289E-1,2.127212524E0,9.214767456E0
2.604980468E0,6.340942383E-1,2.155929565E0,9.190826416E0
2.607330322E0,5.982055664E-1,2.170288086E0,9.198013306E0
2.609649658E0,5.982055664E-1,2.182250977E0,9.221939087E0
2.611999511E0,5.718841553E-1,2.199005127E0,9.226730347E0
2.614349365E0,5.503540039E-1,2.208572388E0,9.217147827E0
2.616668701E0,5.479583740E-1,2.199005127E0,9.221939087E0
2.619018554E0,5.742797852E-1,2.151153564E0,9.221939087E0
2.621337890E0,5.910339355E-1,2.079360962E0,9.226730347E0
2.623687744E0,6.173553467E-1,2.012359619E0,9.229110718E0
2.626007080E0,6.460571289E-1,1.921432495E0,9.229110718E0
2.628356933E0,6.723785400E-1,1.842468262E0,9.224334717E0
2.630676269E0,7.058868408E-1,1.765899658E0,9.260223389E0
2.633026123E0,7.226257324E-1,1.701293945E0,9.291336060E0
2.635375976E0,6.963043213E-1,1.648651123E0,9.308074951E0
2.637695312E0,6.795654297E-1,1.605590820E0,9.322433472E0
2.640045166E0,6.508483887E-1,1.572082520E0,9.332015991E0
2.642364502E0,6.508483887E-1,1.526626587E0,9.355941772E0
2.644714355E0,6.556396484E-1,1.478759766E0,9.353546143E0
2.647033691E0,6.604156494E-1,1.430908203E0,9.358322144E0
2.649383545E0,6.843414307E-1,1.375869751E0,9.351150513E0
2.651702880E0,7.441711426E-1,1.347152710E0,9.355941772E0
2.654052734E0,8.039855957E-1,1.359130859E0,9.425323486E0
2.656372070E0,8.446655273E-1,1.380661011E0,9.547363281E0
2.658721923E0,8.518524170E-1,1.392623901E0,9.700500488E0
2.661071777E0,8.255310059E-1,1.392623901E0,9.824935913E0
2.663391113E0,7.752685547E-1,1.373474121E0,1.000199890E1
2.665740966E0,7.178497314E-1,1.361511230E0,1.014317322E1
2.668060302E0,6.676025391E-1,1.347152710E0,1.025325012E1
2.670410156E0,6.388854980E-1,1.320831299E0,1.031306458E1
2.672729492E0,5.982055664E-1,1.304092407E0,1.033459473E1
2.675079345E0,5.694885254E-1,1.289733887E0,1.033459473E1
2.677398681E0,5.383911133E-1,1.261016846E0,1.034895325E1
2.679748535E0,5.168457031E-1,1.225128174E0,1.038723755E1
2.682098388E0,4.642028809E-1,1.196411133E0,1.042074585E1
2.684417724E0,4.091796875E-1,1.141372681E0,1.045423889E1
2.686767578E0,3.517456055E-1,1.081558228E0,1.048295593E1
2.689086914E0,3.182525635E-1,1.009765625E0,1.050688171E1
2.691436767E0,2.727813721E-1,9.331970215E-1,1.054277039E1
2.693756103E0,2.321014404E-1,8.470611572E-1,1.056909180E1
2.696105957E0,1.866455078E-1,7.704925537E-1,1.059541321E1
2.698425293E0,1.579284668E-1,7.369842529E-1,1.062173462E1
2.700775146E0,1.387786865E-1,7.178497314E-1,1.065524292E1
2.703125000E0,1.148529053E-1,6.867370605E-1,1.067199707E1
2.705444336E0,8.853149414E-2,6.699829102E-1,1.066001892E1
2.707794189E0,7.896423340E-2,6.077728271E-1,1.063609314E1
2.710113525E0,6.221008301E-2,5.527496338E-1,1.058824158E1
2.712463378E0,4.785156250E-2,5.001068115E-1,1.050448608E1
2.714782714E0,4.785156250E-2,4.378814697E-1,1.044467163E1
2.717132568E0,4.785156250E-2,4.019927979E-1,1.039202881E1
2.719451904E0,4.785156250E-2,3.541412354E-1,1.032742310E1
2.721801757E0,4.785156250E-2,3.158569336E-1,1.027238464E1
2.724151611E0,4.785156250E-2,2.943115234E-1,1.019581604E1
2.726470947E0,4.785156250E-2,2.536315918E-1,1.012164307E1
2.728820800E0,4.785156250E-2,2.273254395E-1,1.002114868E1
2.731140136E0,4.067993164E-2,2.249298096E-1,9.920639038E0
2.733489990E0,2.871704102E-2,1.962127686E-1,9.796218872E0
2.735809326E0,4.791259766E-3,2.033843994E-1,9.714859009E0
2.738159179E0,-9.567260742E-3,1.962127686E-1,9.590438843E0
2.740509033E0,-9.567260742E-3,1.914215088E-1,9.442077637E0
2.742828369E0,-7.171630859E-3,2.297058105E-1,9.308074951E0
2.745178222E0,-1.196289062E-2,2.249298096E-1,9.164505005E0
2.747497558E0,1.196289062E-2,2.344970703E-1,8.989837646E0
2.749847412E0,3.588867188E-2,2.368927002E-1,8.803192139E0
2.752166748E0,4.785156250E-2,2.392883301E-1,8.635696411E0
2.754516601E0,4.785156250E-2,2.392883301E-1,8.480163574E0
2.756835937E0,1.675415039E-2,2.632141113E-1,8.322235107E0
2.759185791E0,-1.914978027E-2,2.895355225E-1,8.183456421E0
2.761535644E0,-7.177734375E-2,2.943115234E-1,8.039886475E0
2.763854980E0,-8.613586426E-2,3.158569336E-1,7.884353638E0
2.766204834E0,-1.004943848E-1,3.278198242E-1,7.747955322E0
2.768524170E0,-9.332275391E-2,3.325958252E-1,7.630706787E0
2.770874023E0,-1.028900146E-1,3.182525635E-1,7.530212402E0
2.773193359E0,-1.220397949E-1,3.397827148E-1,7.456039429E0
2.775543212E0,-1.052856445E-1,3.732757568E-1,7.422531128E0
2.777862548E0,-8.853149414E-2,3.852386475E-1,7.441680908E0
2.780212402E0,-4.785156250E-2,4.091796875E-1,7.477569580E0
2.782562255E0,-4.307556152E-2,4.426727295E-1,7.525421143E0
2.784881591E0,-1.914978027E-2,4.522399902E-1,7.585250854E0
2.787231445E0,0.000000000E0,4.809570312E-1,7.657028198E0
2.789550781E0,3.588867188E-2,4.881286621E-1,7.735992432E0
2.791900634E0,4.785156250E-2,4.929199219E-1,7.834106445E0
2.794219970E0,4.785156250E-2,5.168457031E-1,7.922637939E0
2.796569824E0,5.743408203E-2,5.072784424E-1,7.982452393E0
2.798889160E0,1.028900146E-1,4.953155518E-1,8.054244995E0
2.801239013E0,1.387786865E-1,4.809570312E-1,8.169097900E0
2.803588867E0,1.555328369E-1,4.498443604E-1,8.276779175E0
2.805908203E0,1.818542480E-1,4.139556885E-1,8.362915039E0
2.808258056E0,2.105712891E-1,3.780670166E-1,8.475372314E0
2.810577392E0,2.440643311E-1,3.421783447E-1,8.544769287E0
2.812927246E0,2.871398926E-1,2.847442627E-1,8.621337891E0
2.815246582E0,3.134613037E-1,2.297058105E-1,8.671585083E0
2.817596435E0,3.302154541E-1,1.579284668E-1,8.724227905E0
2.819915771E0,3.613128662E-1,1.100769043E-1,8.757736206E0
2.822265625E0,3.637084961E-1,5.264282227E-2,8.793624878E0
2.824615478E0,3.756713867E-1,4.785156250E-2,8.824737549E0
2.826934814E0,4.043884277E-1,7.171630859E-3,8.860626221E0
2.829284668E0,4.426727295E-1,-5.503845215E-2,8.877365112E0
2.831604003E0,4.498443604E-1,-9.332275391E-2,8.908477783E0
2.833953857E0,4.785614014E-1,-1.459655762E-1,8.908477783E0
2.836273193E0,5.144500732E-1,-1.914215088E-1,8.930007935E0
2.838623046E0,5.144500732E-1,-2.440643311E-1,8.920440674E0
2.840942382E0,5.431671143E-1,-2.967071533E-1,8.908477783E0
2.843322753E0,5.335998535E-1,-3.349914551E-1,8.886947632E0
2.845642089E0,5.264282227E-1,-3.780670166E-1,8.872589111E0
2.847991943E0,5.264282227E-1,-4.235229492E-1,8.846267700E0
2.850341796E0,5.120697021E-1,-4.689941406E-1,8.824737549E0
2.852661132E0,5.144500732E-1,-4.833526611E-1,8.784057617E0
2.855010986E0,5.192413330E-1,-4.977111816E-1,8.774475098E0
2.857330322E0,5.264282227E-1,-5.096740723E-1,8.767303467E0
2.859680175E0,5.144500732E-1,-5.192413330E-1,8.764907837E0
2.861999511E0,5.192413330E-1,-5.264282227E-1,8.796020508E0
2.864349365E0,5.120697021E-1,-5.216369629E-1,8.812759399E0
2.866668701E0,4.977111816E-1,-5.192413330E-1,8.819946289E0
2.869018554E0,4.785614014E-1,-4.929199219E-1,8.855834961E0
2.871368408E0,4.689941406E-1,-4.833526611E-1,8.894119263E0
2.873687744E0,4.426727295E-1,-4.642028809E-1,8.939590454E0
2.876037597E0,4.235229492E-1,-4.402770996E-1,8.997009277E0
2.878356933E0,3.972015381E-1,-4.402770996E-1,9.056838989E0
2.880706787E0,3.828582764E-1,-4.163513184E-1,9.109481812E0
2.883026123E0,3.661041260E-1,-3.876342773E-1,9.183654785E0
2.885375976E0,3.708801270E-1,-3.661041260E-1,9.248260498E0
2.887695312E0,3.661041260E-1,-3.469543457E-1,9.312866211E0
2.890045166E0,3.756713867E-1,-3.397827148E-1,9.370300293E0
2.892364502E0,3.828582764E-1,-3.158569336E-1,9.444473267E0
2.894714355E0,4.067840576E-1,-2.871398926E-1,9.477966309E0
2.897064209E0,4.115600586E-1,-2.464599609E-1,9.528213501E0
2.899383545E0,4.163513184E-1,-2.321014404E-1,9.568893433E0
2.901733398E0,4.331054688E-1,-2.225341797E-1,9.611968994E0
2.904052734E0,4.402770996E-1,-1.866455078E-1,9.631118774E0
2.906402587E0,4.618072510E-1,-1.651000977E-1,9.628723145E0
2.908721923E0,4.522399902E-1,-1.674957275E-1,9.643081665E0
2.911071777E0,4.737854004E-1,-1.555328369E-1,9.607177734E0
2.913391113E0,4.594268799E-1,-1.507415771E-1,9.556930542E0
2.915740966E0,4.546356201E-1,-1.340026855E-1,9.523437500E0
2.918060302E0,4.594268799E-1,-1.316070557E-1,9.487548828E0
2.920410156E0,4.570312500E-1,-1.340026855E-1,9.432510376E0
2.922760009E0,4.402770996E-1,-1.244201660E-1,9.391830444E0
2.925079345E0,4.259185791E-1,-1.100769043E-1,9.341583252E0
2.927429199E0,4.235229492E-1,-1.076812744E-1,9.291336060E0
2.929748535E0,4.187469482E-1,-7.896423340E-2,9.243469238E0
2.932098388E0,4.067840576E-1,-5.981445312E-2,9.231506348E0
2.934417724E0,4.163513184E-1,-5.024719238E-2,9.186050415E0
2.936767578E0,4.211425781E-1,-4.307556152E-2,9.152542114E0
2.939086914E0,4.187469482E-1,-2.871704102E-2,9.123840332E0
2.941436767E0,4.019927979E-1,-3.349304199E-2,9.071197510E0
2.943756103E0,3.900299072E-1,-2.395629883E-3,9.008972168E0
2.946105957E0,3.780670166E-1,4.791259766E-3,8.963516235E0
2.948455810E0,3.756713867E-1,1.435852051E-2,8.934799194E0
2.950775146E0,3.684997559E-1,1.675415039E-2,8.896514893E0
2.953125000E0,3.589172363E-1,4.785156250E-2,8.867797852E0
2.955444336E0,3.397827148E-1,4.785156250E-2,8.839080811E0
2.957794189E0,3.158569336E-1,5.024719238E-2,8.815155029E0
2.960113525E0,3.110656738E-1,7.177734375E-2,8.798416138E0
2.962463378E0,2.919311523E-1,1.124572754E-1,8.803192139E0
2.964782714E0,2.847442627E-1,1.722869873E-1,8.798416138E0
2.967132568E0,2.560272217E-1,2.081756592E-1,8.800796509E0
2.969451904E0,2.512512207E-1,2.536315918E-1,8.807983398E0
2.971801757E0,2.392883301E-1,3.134613037E-1,8.812759399E0
2.974151611E0,2.392883301E-1,3.397827148E-1,8.839080811E0
2.976470947E0,2.368927002E-1,3.565368652E-1,8.839080811E0
2.978820800E0,2.368927002E-1,3.900299072E-1,8.836700439E0
2.981140136E0,2.536315918E-1,3.948211670E-1,8.827117920E0
2.983489990E0,2.608184814E-1,3.900299072E-1,8.810379028E0
2.985809326E0,2.919311523E-1,4.043884277E-1,8.796020508E0
2.988159179E0,2.919311523E-1,4.139556885E-1,8.779266357E0
2.990478515E0,3.014984131E-1,4.187469482E-1,8.733810425E0
2.992828369E0,2.967071533E-1,4.091796875E-1,8.695510864E0
2.995178222E0,3.134613037E-1,3.972015381E-1,8.657226562E0
2.997497558E0,3.325958252E-1,4.235229492E-1,8.638092041E0
2.999847412E0,3.373870850E-1,4.522399902E-1,8.626129150E0
3.002166748E0,3.684997559E-1,4.833526611E-1,8.635696411E0
3.004516601E0,3.900299072E-1,5.240325928E-1,8.621337891E0
3.006835937E0,4.019927979E-1,5.527496338E-1,8.618942261E0
3.009185791E0,4.211425781E-1,5.766754150E-1,8.626129150E0
3.011505127E0,4.283142090E-1,6.173553467E-1,8.635696411E0
3.013854980E0,4.450683594E-1,6.412811279E-1,8.630905151E0
3.016204834E0,4.618072510E-1,6.532440186E-1,8.630905151E0
3.018524170E0,4.474639893E-1,6.843414307E-1,8.635696411E0
3.020874023E0,4.331054688E-1,7.010955811E-1,8.626129150E0
3.023193359E0,4.378814697E-1,7.130584717E-1,8.640487671E0
3.025543212E0,4.259185791E-1,7.274169922E-1,8.635696411E0
3.027862548E0,3.972015381E-1,7.178497314E-1,8.640487671E0
3.030212402E0,3.876342773E-1,7.154541016E-1,8.676376343E0
3.032531738E0,3.780670166E-1,7.250213623E-1,8.712265015E0
3.034881591E0,3.493499756E-1,7.322082520E-1,8.755340576E0
3.037231445E0,3.373870850E-1,7.202453613E-1,8.810379028E0
3.039550781E0,3.230285645E-1,7.202453613E-1,8.877365112E0
3.041900634E0,2.943115234E-1,7.393798828E-1,8.956329346E0
3.044219970E0,2.967071533E-1,7.393798828E-1,9.032897949E0
3.046569824E0,3.134613037E-1,7.417755127E-1,9.121444702E0
3.048889160E0,3.230285645E-1,7.298126221E-1,9.188446045E0
3.051239013E0,3.565368652E-1,6.963043213E-1,9.281753540E0
3.053588867E0,3.565368652E-1,6.915283203E-1,9.339187622E0
3.055908203E0,3.565368652E-1,6.891326904E-1,9.408584595E0
3.058258056E0,3.541412354E-1,6.843414307E-1,9.477966309E0
3.060577392E0,3.684997559E-1,6.532440186E-1,9.544967651E0
3.062927246E0,3.708801270E-1,6.460571289E-1,9.607177734E0
3.065246582E0,3.661041260E-1,6.388854980E-1,9.664611816E0
3.067596435E0,3.732757568E-1,6.293182373E-1,9.717254639E0
3.069915771E0,3.589172363E-1,5.982055664E-1,9.745971680E0
3.072265625E0,3.469543457E-1,5.910339355E-1,9.753143311E0
3.074584961E0,3.373870850E-1,6.029968262E-1,9.769897461E0
3.076934814E0,3.421783447E-1,6.101684570E-1,9.817749023E0
3.079284668E0,3.469543457E-1,6.269226074E-1,9.853637695E0
3.081604003E0,3.613128662E-1,6.388854980E-1,9.908676147E0
3.083953857E0,3.804626465E-1,6.580200195E-1,9.946960449E0
3.086273193E0,3.756713867E-1,6.723785400E-1,9.985244751E0
3.088623046E0,3.661041260E-1,6.819610596E-1,1.001875305E1
3.090942382E0,3.828582764E-1,7.010955811E-1,1.003549194E1
3.093292236E0,4.235229492E-1,7.106628418E-1,1.005703735E1
3.095611572E0,4.259185791E-1,7.274169922E-1,1.005943298E1
3.097961425E0,4.546356201E-1,7.704925537E-1,1.007856750E1
3.100280761E0,4.713897705E-1,7.704925537E-1,1.005943298E1
3.102630615E0,4.929199219E-1,7.800598145E-1,1.003549194E1
3.104980468E0,5.359954834E-1,7.920227051E-1,1.000439453E1
3.107299804E0,5.718841553E-1,7.992095947E-1,9.968505859E0
3.109649658E0,6.077728271E-1,8.183441162E-1,9.911071777E0
3.111968994E0,6.484527588E-1,8.207397461E-1,9.812973022E0
3.114318847E0,6.891326904E-1,8.398742676E-1,9.757934570E0
3.116638183E0,7.130584717E-1,8.757781982E-1,9.712463379E0
3.118988037E0,7.513427734E-1,9.116668701E-1,9.631118774E0
3.121307373E0,7.489471436E-1,9.403839111E-1,9.547363281E0
3.123657226E0,7.728881836E-1,9.523468018E-1,9.427719116E0
3.125976562E0,7.680969238E-1,9.786682129E-1,9.348754883E0
3.128326416E0,7.513427734E-1,1.021728516E0,9.279373169E0
3.130676269E0,7.322082520E-1,1.038482666E0,9.200408936E0
3.133026123E0,7.154541016E-1,1.079162598E0,9.162124634E0
3.135375976E0,6.699829102E-1,1.129409790E0,9.147766113E0
3.137695312E0,6.460571289E-1,1.182052612E0,9.123840332E0
3.140045166E0,6.245269775E-1,1.239486694E0,9.107086182E0
3.142364502E0,6.053771973E-1,1.275375366E0,9.114257812E0
3.144714355E0,5.910339355E-1,1.316055298E0,9.121444702E0
3.147033691E0,5.694885254E-1,1.354339600E0,9.116653442E0
3.149383545E0,5.575256348E-1,1.373474121E0,9.114257812E0
3.151702880E0,5.503540039E-1,1.411758423E0,9.099899292E0
3.154052734E0,5.288085938E-1,1.445266724E0,9.123840332E0
3.156402587E0,4.929199219E-1,1.454833984E0,9.102294922E0
3.158721923E0,4.857482910E-1,1.478759766E0,9.097518921E0
3.161071777E0,4.665985107E-1,1.497909546E0,9.099899292E0
3.163391113E0,4.546356201E-1,1.502685547E0,9.138183594E0
3.165740966E0,4.498443604E-1,1.495513916E0,9.154937744E0
3.168060302E0,4.426727295E-1,1.514663696E0,9.150161743E0
3.170410156E0,4.498443604E-1,1.543365479E0,9.171691895E0
3.172729492E0,4.618072510E-1,1.557723999E0,9.169296265E0
3.175079345E0,4.402770996E-1,1.560119629E0,9.157333374E0
3.177429199E0,4.187469482E-1,1.545761108E0,9.128616333E0
3.179748535E0,3.876342773E-1,1.555328369E0,9.097518921E0
3.182098388E0,3.421783447E-1,1.579269409E0,9.068801880E0
3.184417724E0,2.991027832E-1,1.579269409E0,9.023330688E0
3.186767578E0,2.895355225E-1,1.574478149E0,8.994613647E0
3.189086914E0,2.919311523E-1,1.569686890E0,8.953948975E0
3.191436767E0,2.751770020E-1,1.550552368E0,8.898910522E0
3.193756103E0,2.775726318E-1,1.540985107E0,8.848663330E0
3.196105957E0,2.775726318E-1,1.533798218E0,8.798416138E0
3.198425293E0,2.679901123E-1,1.531402588E0,8.748153687E0
3.200775146E0,2.488555908E-1,1.526626587E0,8.685943604E0
3.203125000E0,2.321014404E-1,1.514663696E0,8.638092041E0
3.205444336E0,2.321014404E-1,1.505081177E0,8.580657959E0
3.207794189E0,2.560272217E-1,1.473983765E0,8.523239136E0
3.210113525E0,2.656097412E-1,1.502685547E0,8.463409424E0
3.212463378E0,2.560272217E-1,1.517044067E0,8.408386230E0
3.214782714E0,2.775726318E-1,1.557723999E0,8.403594971E0
3.217132568E0,2.632141113E-1,1.574478149E0,8.382064819E0
3.219451904E0,2.679901123E-1,1.605590820E0,8.358123779E0
3.221801757E0,2.464599609E-1,1.624725342E0,8.341384888E0
3.224151611E0,2.416687012E-1,1.670196533E0,8.317459106E0
3.226470947E0,2.273254395E-1,1.718048096E0,8.317459106E0
3.228820800E0,1.746826172E-1,1.751541138E0,8.305480957E0
3.231140136E0,1.411743164E-1,1.773086548E0,8.310272217E0
3.233489990E0,9.809875488E-2,1.799407959E0,8.312667847E0
3.235809326E0,5.503845215E-2,1.847259521E0,8.305480957E0
3.238159179E0,4.785156250E-2,1.873580933E0,8.305480957E0
3.240478515E0,3.588867188E-2,1.897506714E0,8.291137695E0
3.242828369E0,-2.632141113E-2,1.907073975E0,8.262420654E0
3.245147705E0,-6.700134277E-2,1.938186646E0,8.233703613E0
3.247497558E0,-1.052856445E-1,1.954940796E0,8.214553833E0
3.249847412E0,-1.651000977E-1,1.969299316E0,8.188232422E0
3.252166748E0,-2.081756592E-1,1.981262207E0,8.130813599E0
3.254516601E0,-2.608184814E-1,1.988433838E0,8.078170776E0
3.256835937E0,-2.895355225E-1,2.014755249E0,8.018356323E0
3.259185791E0,-3.302154541E-1,2.029113770E0,7.963317871E0
3.261505127E0,-3.684997559E-1,2.036285400E0,7.901107788E0
3.263854980E0,-3.972015381E-1,2.036285400E0,7.836486816E0
3.266204834E0,-4.187469482E-1,2.055435181E0,7.788635254E0
3.268524170E0,-4.283142090E-1,2.069793701E0,7.738388062E0
3.270874023E0,-4.474639893E-1,2.072189331E0,7.640289307E0
3.273193359E0,-4.522399902E-1,2.100891113E0,7.580459595E0
3.275543212E0,-4.713897705E-1,2.108078003E0,7.518249512E0
3.277862548E0,-4.689941406E-1,2.117645264E0,7.434494019E0
3.280212402E0,-4.737854004E-1,2.139190674E0,7.372283936E0
3.282531738E0,-4.689941406E-1,2.167892456E0,7.326828003E0
3.284881591E0,-4.857482910E-1,2.189437866E0,7.278961182E0
3.287231445E0,-4.833526611E-1,2.215759277E0,7.223937988E0
3.289550781E0,-4.689941406E-1,2.251647949E0,7.140182495E0
3.291870117E0,-4.761657715E-1,2.285140991E0,7.092330933E0
3.294219970E0,-4.665985107E-1,2.309066772E0,7.039688110E0
3.296569824E0,-4.594268799E-1,2.337783813E0,7.001403809E0
3.298889160E0,-4.474639893E-1,2.383255005E0,6.953536987E0
3.301239013E0,-4.235229492E-1,2.399993896E0,6.917648315E0
3.303558349E0,-4.283142090E-1,2.438293457E0,6.905685425E0
3.305908203E0,-4.043884277E-1,2.466995239E0,6.922439575E0
3.308258056E0,-3.972015381E-1,2.493316650E0,6.963119507E0
3.310577392E0,-3.924255371E-1,2.507675171E0,7.008575439E0
3.312927246E0,-3.804626465E-1,2.531600952E0,7.070785522E0
3.315246582E0,-3.589172363E-1,2.541183472E0,7.133010864E0
3.317596435E0,-3.541412354E-1,2.538787842E0,7.226318359E0
3.319915771E0,-3.517456055E-1,2.553146362E0,7.333999634E0
3.322265625E0,-3.517456055E-1,2.550750732E0,7.465606689E0
3.324584961E0,-3.182525635E-1,2.541183472E0,7.611572266E0
3.326934814E0,-2.823486328E-1,2.517242432E0,7.743179321E0
3.329284668E0,-2.656097412E-1,2.498107910E0,7.893920898E0
3.331604003E0,-3.062744141E-1,2.500503540E0,8.061416626E0
3.333953857E0,-3.708801270E-1,2.531600952E0,8.214553833E0
3.336273193E0,-4.235229492E-1,2.545959473E0,8.348556519E0
3.338623046E0,-4.594268799E-1,2.533996582E0,8.480163574E0
3.340942382E0,-4.737854004E-1,2.498107910E0,8.578262329E0
3.343292236E0,-4.689941406E-1,2.452636719E0,8.650054932E0
3.345642089E0,-4.355010986E-1,2.380859375E0,8.712265015E0
3.347961425E0,-4.019927979E-1,2.311462402E0,8.752944946E0
3.350311279E0,-3.445739746E-1,2.232498169E0,8.824737549E0
3.352630615E0,-2.823486328E-1,2.129608154E0,8.867797852E0
3.354980468E0,-1.268157959E-1,1.952545166E0,8.855834961E0
3.357299804E0,4.785156250E-2,1.732406616E0,8.839080811E0
3.359649658E0,5.981445312E-2,1.584045410E0,8.827117920E0
3.361968994E0,2.632141113E-2,1.483551025E0,8.805587769E0
3.364318847E0,-1.555328369E-1,1.421340942E0,8.812759399E0
3.366668701E0,-3.278198242E-1,1.402191162E0,8.865402222E0
3.368988037E0,-4.785614014E-1,1.402191162E0,8.958724976E0
3.371337890E0,-5.455627441E-1,1.395019531E0,9.052047729E0
3.373657226E0,-5.312042236E-1,1.423736572E0,9.102294922E0
3.376007080E0,-4.546356201E-1,1.452438354E0,9.142974854E0
3.378326416E0,-3.613128662E-1,1.521835327E0,9.152542114E0
3.380676269E0,-2.584228516E-1,1.572082520E0,9.123840332E0
3.382995605E0,-1.698913574E-1,1.605590820E0,9.111862183E0
3.385345459E0,-1.148529053E-1,1.643875122E0,9.042480469E0
3.387695312E0,-8.613586426E-2,1.682159424E0,8.970687866E0
3.390014648E0,-5.264282227E-2,1.698898315E0,8.889343262E0
3.392364502E0,-3.349304199E-2,1.737182617E0,8.824737549E0
3.394683837E0,-7.171630859E-3,1.763504028E0,8.760131836E0
3.397033691E0,4.547119141E-2,1.780258179E0,8.724227905E0
3.399353027E0,6.221008301E-2,1.797012329E0,8.652450562E0
3.401702880E0,1.603240967E-1,1.823333740E0,8.599807739E0
3.404052734E0,2.847442627E-1,1.847259521E0,8.537597656E0
3.406372070E0,4.139556885E-1,1.892715454E0,8.465805054E0
3.408721923E0,5.431671143E-1,1.923828125E0,8.408386230E0
3.411041259E0,6.652069092E-1,1.931015015E0,8.374877930E0
3.413391113E0,7.704925537E-1,1.959716797E0,8.329421997E0
3.415740966E0,8.805541992E-1,1.978866577E0,8.281555176E0
3.418090820E0,9.667053223E-1,1.986038208E0,8.257629395E0
3.420410156E0,1.050445557E0,2.009963989E0,8.226531982E0
3.422760009E0,1.119842529E0,2.050643921E0,8.212173462E0
3.425109863E0,1.182052612E0,2.069793701E0,8.214553833E0
3.427429199E0,1.225128174E0,2.105682373E0,8.226531982E0
3.429779052E0,1.261016846E0,2.143966675E0,8.252853394E0
3.432098388E0,1.296905518E0,2.187042236E0,8.281555176E0
3.434448242E0,1.344772339E0,2.230117798E0,8.334197998E0
3.436767578E0,1.383056641E0,2.280364990E0,8.396408081E0
3.439117431E0,1.428512573E0,2.292327881E0,8.528015137E0
3.441436767E0,1.459625244E0,2.333007812E0,8.647659302E0
3.443786621E0,1.505081177E0,2.368896484E0,8.796020508E0
3.446105957E0,1.519439697E0,2.392822266E0,8.980270386E0
3.448455810E0,1.545761108E0,2.402389526E0,9.166900635E0
3.450805664E0,1.533798218E0,2.404785156E0,9.358322144E0
3.453125000E0,1.514663696E0,2.397613525E0,9.564117432E0
3.455474853E0,1.502685547E0,2.368896484E0,9.757934570E0
3.457794189E0,1.485946655E0,2.335388184E0,9.954147339E0
3.460144043E0,1.488342285E0,2.282745361E0,1.016949463E1
3.462463378E0,1.485946655E0,2.232498169E0,1.037049866E1
3.464813232E0,1.497909546E0,2.187042236E0,1.056431580E1
3.467132568E0,1.485946655E0,2.120040894E0,1.073181152E1
3.469482421E0,1.502685547E0,2.026718140E0,1.089451599E1
3.471832275E0,1.507476807E0,1.966903687E0,1.103330994E1
3.474151611E0,1.540985107E0,1.887939453E0,1.115055847E1
3.476501464E0,1.536193848E0,1.832901001E0,1.127497864E1
3.478820800E0,1.588836670E0,1.773086548E0,1.134677124E1
3.481170654E0,1.596008301E0,1.730010986E0,1.138505554E1
3.483489990E0,1.591232300E0,1.670196533E0,1.140419006E1
3.485900878E0,1.610366821E0,1.631912231E0,1.142333984E1
3.488159179E0,1.605590820E0,1.586441040E0,1.140658569E1
3.490509033E0,1.619934082E0,1.550552368E0,1.139222717E1
3.492858886E0,1.607971191E0,1.531402588E0,1.136590576E1
3.495178222E0,1.622329712E0,1.490722656E0,1.135394287E1
3.497528076E0,1.648651123E0,1.476364136E0,1.132044983E1
3.499847412E0,1.670196533E0,1.462020874E0,1.129412842E1
3.502197265E0,1.660614014E0,1.462020874E0,1.127258301E1
3.504516601E0,1.674972534E0,1.485946655E0,1.124148560E1
3.506866455E0,1.684539795E0,1.488342285E0,1.116012573E1
3.509185791E0,1.694122314E0,1.526626587E0,1.109312439E1
3.511535644E0,1.691726685E0,1.572082520E0,1.101416016E1
3.513854980E0,1.713256836E0,1.617553711E0,1.089930725E1
3.516204834E0,1.722839355E0,1.665405273E0,1.081317139E1
3.518524170E0,1.744369507E0,1.694122314E0,1.071505737E1
3.520874023E0,1.763504028E0,1.758728027E0,1.061695862E1
3.523223877E0,1.782653809E0,1.782653809E0,1.049731445E1
3.525543212E0,1.797012329E0,1.813766479E0,1.037049866E1
3.527893066E0,1.794616699E0,1.840087891E0,1.021496582E1
3.530212402E0,1.808975220E0,1.861618042E0,1.007617188E1
3.532562255E0,1.804183960E0,1.887939453E0,9.925430298E0
3.534881591E0,1.813766479E0,1.907073975E0,9.796218872E0
3.537231445E0,1.808975220E0,1.942977905E0,9.724426270E0
3.539550781E0,1.792221069E0,1.959716797E0,9.611968994E0
3.541900634E0,1.777862549E0,1.978866577E0,9.480361938E0
3.544250488E0,1.758728027E0,1.988433838E0,9.377471924E0
3.546569824E0,1.756332397E0,1.990829468E0,9.274581909E0
3.548919677E0,1.756332397E0,2.000396729E0,9.181259155E0
3.551239013E0,1.753936768E0,1.995620728E0,9.104690552E0
3.553588867E0,1.708480835E0,1.971679688E0,9.018554688E0
3.555908203E0,1.694122314E0,1.959716797E0,8.944366455E0
3.558258056E0,1.694122314E0,1.935791016E0,8.877365112E0
3.560577392E0,1.655838013E0,1.890335083E0,8.829513550E0
3.562927246E0,1.636688232E0,1.859222412E0,8.798416138E0
3.565277099E0,1.596008301E0,1.830505371E0,8.769699097E0
3.567596435E0,1.550552368E0,1.785049438E0,8.760131836E0
3.569946289E0,1.507476807E0,1.765899658E0,8.760131836E0
3.572265625E0,1.442871094E0,1.737182617E0,8.786437988E0
3.574615478E0,1.406982422E0,1.720443726E0,8.793624878E0
3.576934814E0,1.373474121E0,1.694122314E0,8.858230591E0
3.579284668E0,1.330413818E0,1.677368164E0,8.906082153E0
3.581604003E0,1.301696777E0,1.674972534E0,8.999404907E0
3.583953857E0,1.272979736E0,1.679763794E0,9.078369141E0
3.586273193E0,1.263412476E0,1.701293945E0,9.171691895E0
3.588623046E0,1.239486694E0,1.691726685E0,9.257827759E0
3.590972900E0,1.215560913E0,1.658233643E0,9.372680664E0
3.593292236E0,1.194015503E0,1.643875122E0,9.482757568E0
3.595642089E0,1.179656982E0,1.631912231E0,9.576080322E0
3.597961425E0,1.141372681E0,1.607971191E0,9.667007446E0
3.600311279E0,1.103088379E0,1.576873779E0,9.748352051E0
3.602630615E0,1.093521118E0,1.562515259E0,9.779464722E0
3.604980468E0,1.076766968E0,1.562515259E0,9.858428955E0
3.607299804E0,1.071990967E0,1.545761108E0,9.923034668E0
3.609649658E0,1.057632446E0,1.545761108E0,9.999603271E0
3.611999511E0,1.038482666E0,1.543365479E0,1.004267883E1
3.614318847E0,1.014556885E0,1.531402588E0,1.008335876E1
3.616668701E0,9.906311035E-1,1.514663696E0,1.011685181E1
3.618988037E0,9.547424316E-1,1.507476807E0,1.015753174E1
3.621337890E0,9.451599121E-1,1.500305176E0,1.015753174E1
3.623657226E0,9.164581299E-1,1.495513916E0,1.016471863E1
3.626007080E0,8.949127197E-1,1.462020874E0,1.013839722E1
3.628326416E0,8.733825684E-1,1.452438354E0,1.015274048E1
3.630676269E0,8.398742676E-1,1.445266724E0,1.013360596E1
3.633026123E0,8.207397461E-1,1.423736572E0,1.011445618E1
3.635345459E0,8.087768555E-1,1.418945312E0,1.007856750E1
3.637695312E0,7.968139648E-1,1.421340942E0,1.006900024E1
3.640014648E0,7.944183350E-1,1.426116943E0,1.006181335E1
3.642364502E0,8.015899658E-1,1.442871094E0,1.006660461E1
3.644683837E0,8.063812256E-1,1.464401245E0,1.007617188E1
3.647033691E0,8.303070068E-1,1.495513916E0,1.009292603E1
3.649353027E0,8.494567871E-1,1.483551025E0,1.007617188E1
3.651702880E0,8.542327881E-1,1.509872437E0,1.006900024E1
3.654052734E0,8.350982666E-1,1.512268066E0,1.004747009E1
3.656372070E0,8.350982666E-1,1.524230957E0,1.001635742E1
3.658721923E0,8.398742676E-1,1.538589478E0,9.966110229E0
3.661041259E0,8.279113770E-1,1.543365479E0,9.894317627E0
3.663391113E0,8.039855957E-1,1.572082520E0,9.839294434E0
3.665710449E0,7.968139648E-1,1.574478149E0,9.755538940E0
3.668060302E0,7.680969238E-1,1.596008301E0,9.741180420E0
3.670379638E0,7.513427734E-1,1.617553711E0,9.688537598E0
3.672729492E0,7.346038818E-1,1.651046753E0,9.619140625E0
3.675079345E0,7.130584717E-1,1.684539795E0,9.554534912E0
3.677398681E0,6.939239502E-1,1.696517944E0,9.482757568E0
3.679748535E0,6.771697998E-1,1.715652466E0,9.410964966E0
3.682067871E0,6.556396484E-1,1.730010986E0,9.317657471E0
3.684417724E0,6.316986084E-1,1.725219727E0,9.212371826E0
3.686737060E0,6.053771973E-1,1.713256836E0,9.119049072E0
3.689086914E0,5.790557861E-1,1.730010986E0,8.997009277E0
3.691406250E0,5.503540039E-1,1.715652466E0,8.867797852E0
3.693756103E0,5.168457031E-1,1.720443726E0,8.764907837E0
3.696105957E0,4.833526611E-1,1.725219727E0,8.640487671E0
3.698425293E0,4.642028809E-1,1.718048096E0,8.525634766E0
3.700775146E0,4.426727295E-1,1.708480835E0,8.417953491E0
3.703125000E0,4.570312500E-1,1.698898315E0,8.298309326E0
3.705474853E0,4.618072510E-1,1.730010986E0,8.169097900E0
3.707794189E0,4.713897705E-1,1.746765137E0,8.018356323E0
3.710144043E0,4.857482910E-1,1.789825439E0,7.850845337E0
3.712463378E0,5.072784424E-1,1.813766479E0,7.707275391E0
3.714813232E0,5.144500732E-1,1.842468262E0,7.568496704E0
3.717163086E0,5.479583740E-1,1.880752563E0,7.415359497E0
3.719482421E0,5.910339355E-1,1.923828125E0,7.283752441E0
3.721832275E0,6.077728271E-1,1.966903687E0,7.130615234E0
3.724151611E0,6.580200195E-1,2.014755249E0,6.994216919E0
3.726501464E0,7.034912109E-1,2.079360962E0,6.841079712E0
3.728820800E0,7.537384033E-1,2.117645264E0,6.735794067E0
3.731170654E0,8.207397461E-1,2.158325195E0,6.616149902E0
3.733489990E0,8.925170898E-1,2.196609497E0,6.486938477E0
3.735839843E0,9.930267334E-1,2.254043579E0,6.369689941E0
3.738159179E0,1.081558228E0,2.297103882E0,6.242874146E0
3.740509033E0,1.186843872E0,2.318649292E0,6.111267090E0
3.742858886E0,1.268188477E0,2.344970703E0,6.008377075E0
3.745178222E0,1.335189819E0,2.371292114E0,5.888732910E0
3.747528076E0,1.411758423E0,2.397613525E0,5.795410156E0
3.749847412E0,1.509872437E0,2.416748047E0,5.702102661E0
3.752197265E0,1.586441040E0,2.431106567E0,5.656631470E0
3.754516601E0,1.679763794E0,2.447860718E0,5.587234497E0
3.756866455E0,1.775466919E0,2.428710938E0,5.534591675E0
3.759185791E0,1.868789673E0,2.445465088E0,5.479568481E0
3.761535644E0,1.954940796E0,2.433502197E0,5.426925659E0
3.763854980E0,2.043472290E0,2.411972046E0,5.405380249E0
3.766204834E0,2.105682373E0,2.390426636E0,5.388641357E0
3.768524170E0,2.136795044E0,2.356933594E0,5.393417358E0
3.770874023E0,2.167892456E0,2.342575073E0,5.410171509E0
3.773223877E0,2.184646606E0,2.297103882E0,5.441284180E0
3.775543212E0,2.194213867E0,2.277969360E0,5.501098633E0
3.777893066E0,2.177474976E0,2.244461060E0,5.589630127E0
3.780212402E0,2.146362305E0,2.201400757E0,5.694915771E0
3.782562255E0,2.093719482E0,2.184646606E0,5.831314087E0
3.784881591E0,2.026718140E0,2.151153564E0,5.998809814E0
3.787231445E0,1.942977905E0,2.120040894E0,6.183059692E0
3.789550781E0,1.878372192E0,2.098510742E0,6.400802612E0
3.791900634E0,1.797012329E0,2.048263550E0,6.620941162E0
3.794250488E0,1.713256836E0,1.993225098E0,6.850646973E0
3.796569824E0,1.622329712E0,1.938186646E0,7.063613892E0
3.798919677E0,1.507476807E0,1.885543823E0,7.317245483E0
3.801239013E0,1.411758423E0,1.816146851E0,7.542175293E0
3.803588867E0,1.325622559E0,1.763504028E0,7.745559692E0
3.805908203E0,1.241882324E0,1.694122314E0,7.970489502E0
3.808258056E0,1.165298462E0,1.624725342E0,8.188232422E0
3.810577392E0,1.112655640E0,1.545761108E0,8.403594971E0
3.812927246E0,1.060012817E0,1.481155396E0,8.590240479E0
3.815246582E0,1.031311035E0,1.404586792E0,8.767303467E0
3.817596435E0,1.009765625E0,1.323226929E0,8.920440674E0
3.819946289E0,9.714813232E-1,1.282546997E0,9.126220703E0
3.822265625E0,9.523468018E-1,1.227523804E0,9.286544800E0
3.824615478E0,9.619140625E-1,1.179656982E0,9.430114746E0
3.826934814E0,9.619140625E-1,1.148559570E0,9.559326172E0
3.829284668E0,9.571228027E-1,1.131805420E0,9.657424927E0
3.831604003E0,9.571228027E-1,1.141372681E0,9.705291748E0
3.833953857E0,9.786682129E-1,1.143768311E0,9.748352051E0
3.836273193E0,9.714813232E-1,1.146163940E0,9.750747681E0
3.838623046E0,9.690856934E-1,1.177261353E0,9.741180420E0
3.840942382E0,9.667053223E-1,1.220336914E0,9.686141968E0
3.843292236E0,9.786682129E-1,1.256225586E0,9.604797363E0
3.845642089E0,9.858398438E-1,1.277770996E0,9.487548828E0
3.847961425E0,1.014556885E0,1.318450928E0,9.370300293E0
3.850311279E0,1.038482666E0,1.342376709E0,9.265014648E0
3.852630615E0,1.083953857E0,1.390228271E0,9.166900635E0
3.854980468E0,1.117446899E0,1.426116943E0,9.056838989E0
3.857299804E0,1.165298462E0,1.454833984E0,8.965911865E0
3.859649658E0,1.208374023E0,1.466796875E0,8.898910522E0
3.861968994E0,1.225128174E0,1.505081177E0,8.848663330E0
3.864318847E0,1.258621216E0,1.526626587E0,8.822341919E0
3.866668701E0,1.292129517E0,1.536193848E0,8.824737549E0
3.868988037E0,1.337585449E0,1.564910889E0,8.817550659E0
3.871337890E0,1.366302490E0,1.598403931E0,8.846267700E0
3.873657226E0,1.428512573E0,1.622329712E0,8.855834961E0
3.876007080E0,1.500305176E0,1.648651123E0,8.894119263E0
3.878326416E0,1.560119629E0,1.660614014E0,8.922836304E0
3.880676269E0,1.622329712E0,1.670196533E0,8.977874756E0
3.882995605E0,1.701293945E0,1.682159424E0,9.061614990E0
3.885345459E0,1.761123657E0,1.660614014E0,9.176467896E0
3.887695312E0,1.832901001E0,1.651046753E0,9.310470581E0
3.890106201E0,1.887939453E0,1.612762451E0,9.451644897E0
3.892364502E0,1.940582275E0,1.584045410E0,9.619140625E0
3.894683837E0,2.012359619E0,1.536193848E0,9.755538940E0
3.897033691E0,2.074584961E0,1.507476807E0,9.956542969E0
3.899353027E0,2.158325195E0,1.464401245E0,1.019104004E1
3.901702880E0,2.230117798E0,1.409378052E0,1.043031311E1
3.904022216E0,2.311462402E0,1.349548340E0,1.066241455E1
3.906372070E0,2.385650635E0,1.289733887E0,1.090170288E1
3.908691406E0,2.459823608E0,1.225128174E0,1.116252136E1
3.911041259E0,2.531600952E0,1.146163940E0,1.141137695E1
3.913391113E0,2.574676514E0,1.083953857E0,1.164347839E1
3.915710449E0,2.627319336E0,1.002593994E0,1.183969116E1
3.918060302E0,2.632110596E0,9.284210205E-1,1.200239563E1
3.920379638E0,2.624923706E0,8.303070068E-1,1.216989136E1
3.922729492E0,2.586639404E0,7.274169922E-1,1.230868530E1
3.925048828E0,2.529220581E0,6.221313477E-1,1.244029236E1
3.927398681E0,2.445465088E0,5.288085938E-1,1.255035400E1
3.929718017E0,2.342575073E0,4.522399902E-1,1.261975098E1
3.932067871E0,2.222930908E0,3.852386475E-1,1.269152832E1
3.934387207E0,2.103286743E0,3.349914551E-1,1.276092529E1
3.936737060E0,1.950149536E0,2.727813721E-1,1.281834412E1
3.939086914E0,1.806579590E0,2.321014404E-1,1.285664368E1
3.941406250E0,1.663009644E0,1.770629883E-1,1.287577820E1
3.943756103E0,1.512268066E0,1.363983154E-1,1.289492798E1
3.946075439E0,1.361511230E0,1.244201660E-1,1.290449524E1
3.948425293E0,1.251449585E0,1.124572754E-1,1.289970398E1
3.950744628E0,1.150955200E0,9.809875488E-2,1.288534546E1
3.953094482E0,1.067199707E0,8.853149414E-2,1.285664368E1
3.955413818E0,9.786682129E-1,9.571838379E-2,1.280160522E1
3.957763671E0,9.236297607E-1,8.853149414E-2,1.272981262E1
3.960113525E0,8.590240479E-1,1.100769043E-1,1.262452698E1
3.962432861E0,7.992095947E-1,1.363983154E-1,1.251206970E1
3.964782714E0,7.657012939E-1,1.555328369E-1,1.241397095E1
3.967102050E0,7.561340332E-1,2.033843994E-1,1.227757263E1
3.969451904E0,7.633056641E-1,2.464599609E-1,1.213639832E1
3.971771240E0,7.872314453E-1,3.182525635E-1,1.198086548E1
3.974121093E0,7.992095947E-1,3.756713867E-1,1.181097412E1
3.976470947E0,8.159484863E-1,4.450683594E-1,1.166740417E1
3.978790283E0,8.255310059E-1,5.120697021E-1,1.152862549E1
3.981140136E0,8.446655273E-1,6.053771973E-1,1.135394287E1
3.983459472E0,8.709869385E-1,6.747741699E-1,1.119123840E1
3.985809326E0,8.949127197E-1,7.633056641E-1,1.102372742E1
3.988159179E0,9.140625000E-1,8.542327881E-1,1.086102295E1
3.990509033E0,9.499511719E-1,9.523468018E-1,1.069352722E1
3.992828369E0,9.619140625E-1,1.043273926E0,1.053080750E1
3.995178222E0,9.954071045E-1,1.115051270E0,1.039682007E1
3.997528076E0,1.040878296E0,1.182052612E0,1.025564575E1
3.999847412E0,1.086334229E0,1.251449585E0,1.014796448E1
4.002197265E0,1.122238159E0,1.294509888E0,1.004985046E1
4.004516601E0,1.170089722E0,1.371093750E0,9.970886230E0
4.006866455E0,1.232299805E0,1.423736572E0,9.923034668E0
4.009185791E0,1.289733887E0,1.464401245E0,9.906280518E0
4.011535644E0,1.330413818E0,1.517044067E0,9.911071777E0
4.013854980E0,1.404586792E0,1.552947998E0,9.930221558E0
4.016204834E0,1.440475464E0,1.584045410E0,9.982849121E0
4.018554687E0,1.488342285E0,1.588836670E0,1.004507446E1
4.020874023E0,1.524230957E0,1.591232300E0,1.013600159E1
4.023223877E0,1.567306519E0,1.579269409E0,1.021734619E1
4.025543212E0,1.600799561E0,1.538589478E0,1.029631042E1
4.027893066E0,1.619934082E0,1.512268066E0,1.040159607E1
4.030212402E0,1.631912231E0,1.464401245E0,1.048535156E1
4.032562255E0,1.636688232E0,1.395019531E0,1.056431580E1
4.034881591E0,1.617553711E0,1.339981079E0,1.066720581E1
4.037231445E0,1.596008301E0,1.272979736E0,1.075334167E1
4.039550781E0,1.567306519E0,1.203582764E0,1.084666443E1
4.041900634E0,1.555328369E0,1.160522461E0,1.090887451E1
4.044219970E0,1.517044067E0,1.110275269E0,1.095912170E1
4.046569824E0,1.481155396E0,1.064804077E0,1.100698853E1
4.048919677E0,1.457229614E0,1.019348145E0,1.105484009E1
4.051239013E0,1.397415161E0,9.930267334E-1,1.107876587E1
4.053588867E0,1.368698120E0,9.930267334E-1,1.110269165E1
4.055908203E0,1.313659668E0,9.738769531E-1,1.109072876E1
4.058258056E0,1.265808105E0,9.738769531E-1,1.107876587E1
4.060577392E0,1.208374023E0,9.643096924E-1,1.104527283E1
4.062927246E0,1.167694092E0,9.690856934E-1,1.099023438E1
4.065246582E0,1.131805420E0,9.978027344E-1,1.092083740E1
4.067596435E0,1.091125488E0,1.021728516E0,1.080838013E1
4.069915771E0,1.031311035E0,1.048049927E0,1.069352722E1
4.072265625E0,1.009765625E0,1.079162598E0,1.056671143E1
4.074615478E0,9.762725830E-1,1.105484009E0,1.043031311E1
4.076934814E0,9.619140625E-1,1.165298462E0,1.028674316E1
4.079284668E0,9.475555420E-1,1.208374023E0,1.012881470E1
4.081604003E0,9.355926514E-1,1.261016846E0,9.992431641E0
4.083953857E0,9.451599121E-1,1.323226929E0,9.851257324E0
4.086273193E0,9.427795410E-1,1.363906860E0,9.750747681E0
4.088623046E0,9.403839111E-1,1.397415161E0,9.638290405E0
4.090942382E0,9.403839111E-1,1.447662354E0,9.516250610E0
4.093292236E0,9.523468018E-1,1.495513916E0,9.387039185E0
4.095642089E0,9.571228027E-1,1.529006958E0,9.272186279E0
4.097961425E0,1.000198364E0,1.569686890E0,9.178863525E0
4.100311279E0,1.033706665E0,1.598403931E0,9.085556030E0
4.102630615E0,1.067199707E0,1.627120972E0,8.997009277E0
4.104980468E0,1.095916748E0,1.658233643E0,8.889343262E0
4.107299804E0,1.119842529E0,1.670196533E0,8.812759399E0
4.109649658E0,1.131805420E0,1.701293945E0,8.748153687E0
4.111968994E0,1.150955200E0,1.713256836E0,8.695510864E0
4.114318847E0,1.153335571E0,1.756332397E0,8.681167603E0
4.116638183E0,1.158126831E0,1.751541138E0,8.652450562E0
4.118988037E0,1.155731201E0,1.770690918E0,8.640487671E0
4.121337890E0,1.165298462E0,1.792221069E0,8.633300781E0
4.123657226E0,1.160522461E0,1.806579590E0,8.628524780E0
4.126007080E0,1.112655640E0,1.804183960E0,8.645263672E0
4.128326416E0,1.086334229E0,1.801788330E0,8.654846191E0
4.130676269E0,1.045669556E0,1.773086548E0,8.685943604E0
4.132995605E0,9.978027344E-1,1.749160767E0,8.707489014E0
4.135345459E0,9.212341309E-1,1.741973877E0,8.721832275E0
4.137695312E0,8.733825684E-1,1.710861206E0,8.745773315E0
4.140014648E0,8.015899658E-1,1.689331055E0,8.774475098E0
4.142364502E0,7.130584717E-1,1.674972534E0,8.812759399E0
4.144683837E0,6.364898682E-1,1.655838013E0,8.858230591E0
4.147033691E0,5.766754150E-1,1.619934082E0,8.894119263E0
4.149353027E0,4.905242920E-1,1.574478149E0,8.927627563E0
4.151702880E0,4.331054688E-1,1.552947998E0,8.980270386E0
4.154022216E0,3.541412354E-1,1.529006958E0,9.004196167E0
4.156372070E0,2.943115234E-1,1.493118286E0,9.035293579E0
4.158691406E0,2.416687012E-1,1.464401245E0,9.037689209E0
4.161041259E0,1.746826172E-1,1.433303833E0,9.023330688E0
4.163391113E0,1.363983154E-1,1.409378052E0,9.016159058E0
4.165710449E0,9.809875488E-2,1.385437012E0,9.004196167E0
4.168060302E0,5.264282227E-2,1.366302490E0,8.994613647E0
4.170379638E0,4.785156250E-2,1.347152710E0,8.989837646E0
4.172729492E0,3.828430176E-2,1.344772339E0,8.963516235E0
4.175048828E0,-1.435852051E-2,1.354339600E0,8.913269043E0
4.177398681E0,-6.460571289E-2,1.349548340E0,8.858230591E0
4.179718017E0,-1.196441650E-1,1.359130859E0,8.815155029E0
4.182067871E0,-1.603240967E-1,1.380661011E0,8.764907837E0
4.184417724E0,-1.722869873E-1,1.423736572E0,8.712265015E0
4.186737060E0,-1.914215088E-1,1.442871094E0,8.657226562E0
4.189086914E0,-2.057800293E-1,1.450057983E0,8.590240479E0
4.191406250E0,-1.938171387E-1,1.483551025E0,8.530410767E0
4.193756103E0,-2.129669189E-1,1.521835327E0,8.461029053E0
4.196075439E0,-2.201385498E-1,1.562515259E0,8.386840820E0
4.198425293E0,-2.249298096E-1,1.579269409E0,8.319839478E0
4.200744628E0,-2.297058105E-1,1.610366821E0,8.260025024E0
4.203094482E0,-2.177429199E-1,1.622329712E0,8.193023682E0
4.205444336E0,-2.081756592E-1,1.627120972E0,8.116455078E0
4.207763671E0,-1.914215088E-1,1.646255493E0,8.049453735E0
4.210113525E0,-1.507415771E-1,1.663009644E0,7.980056763E0
4.212432861E0,-1.076812744E-1,1.684539795E0,7.917846680E0
4.214782714E0,-7.896423340E-2,1.718048096E0,7.879562378E0
4.217102050E0,-4.067993164E-2,1.758728027E0,7.872390747E0
4.219451904E0,-2.395629883E-3,1.808975220E0,7.869995117E0
4.221771240E0,3.828430176E-2,1.847259521E0,7.908279419E0
4.224121093E0,4.785156250E-2,1.887939453E0,7.944168091E0
4.226470947E0,4.785156250E-2,1.923828125E0,7.989639282E0
4.228790283E0,6.700134277E-2,1.957336426E0,8.042282104E0
4.231140136E0,6.460571289E-2,1.978866577E0,8.099700928E0
4.233459472E0,6.460571289E-2,1.993225098E0,8.169097900E0
4.235809326E0,6.460571289E-2,2.017150879E0,8.238494873E0
4.238128662E0,5.024719238E-2,2.031509399E0,8.322235107E0
4.240478515E0,4.785156250E-2,2.031509399E0,8.353347778E0
4.242797851E0,4.785156250E-2,2.026718140E0,8.420349121E0
4.245147705E0,4.785156250E-2,2.019546509E0,8.480163574E0
4.247467041E0,4.067993164E-2,2.005187988E0,8.532806396E0
4.249816894E0,-4.791259766E-3,1.988433838E0,8.602203369E0
4.252166748E0,-2.871704102E-2,1.993225098E0,8.662017822E0
4.254486084E0,-6.221008301E-2,1.971679688E0,8.717056274E0
4.256835937E0,-6.700134277E-2,1.954940796E0,8.784057617E0
4.259155273E0,-8.853149414E-2,1.921432495E0,8.860626221E0
4.261505127E0,-1.076812744E-1,1.895111084E0,8.925231934E0
4.263824462E0,-1.459655762E-1,1.856826782E0,8.997009277E0
4.266174316E0,-1.746826172E-1,1.818542480E0,9.040084839E0
4.268493652E0,-1.914215088E-1,1.777862549E0,9.052047729E0
4.270843505E0,-2.273254395E-1,1.749160767E0,9.066406250E0
4.273193359E0,-2.584228516E-1,1.734802246E0,9.116653442E0
4.275543212E0,-2.919311523E-1,1.710861206E0,9.133407593E0
4.277893066E0,-3.062744141E-1,1.694122314E0,9.169296265E0
4.280212402E0,-3.445739746E-1,1.679763794E0,9.200408936E0
4.282562255E0,-3.589172363E-1,1.686935425E0,9.214767456E0
4.284881591E0,-3.732757568E-1,1.694122314E0,9.224334717E0
4.287231445E0,-3.637084961E-1,1.725219727E0,9.233901978E0
4.289550781E0,-3.637084961E-1,1.761123657E0,9.253051758E0
4.291900634E0,-3.206329346E-1,1.787445068E0,9.276977539E0
4.294311523E0,-2.799530029E-1,1.820938110E0,9.243469238E0
4.296569824E0,-2.344970703E-1,1.868789673E0,9.238693237E0
4.298919677E0,-1.914215088E-1,1.916656494E0,9.209976196E0
4.301239013E0,-1.531372070E-1,1.983642578E0,9.154937744E0
4.303588867E0,-1.268157959E-1,2.038681030E0,9.102294922E0
4.305908203E0,-6.939697266E-2,2.074584961E0,9.049652100E0
4.308258056E0,-2.632141113E-2,2.151153564E0,8.951553345E0
4.310577392E0,1.914978027E-2,2.206176758E0,8.860626221E0
4.312927246E0,4.785156250E-2,2.256439209E0,8.798416138E0
4.315277099E0,5.024719238E-2,2.299499512E0,8.707489014E0
4.317596435E0,6.700134277E-2,2.359329224E0,8.638092041E0
4.319946289E0,9.809875488E-2,2.385650635E0,8.549560547E0
4.322265625E0,1.459655762E-1,2.416748047E0,8.451446533E0
4.324615478E0,1.770629883E-1,2.423934937E0,8.370086670E0
4.326934814E0,1.986083984E-1,2.431106567E0,8.300704956E0
4.329284668E0,2.368927002E-1,2.457427979E0,8.236099243E0
4.331604003E0,2.847442627E-1,2.464614868E0,8.169097900E0
4.333953857E0,2.799530029E-1,2.443069458E0,8.137985229E0
4.336303711E0,2.751770020E-1,2.445465088E0,8.133209229E0
4.338623046E0,2.608184814E-1,2.419143677E0,8.130813599E0
4.340942382E0,2.344970703E-1,2.419143677E0,8.188232422E0
4.343292236E0,1.818542480E-1,2.414352417E0,8.271987915E0
4.345642089E0,1.316070557E-1,2.414352417E0,8.408386230E0
4.347961425E0,9.571838379E-2,2.409576416E0,8.566299438E0
4.350311279E0,6.221008301E-2,2.411972046E0,8.781661987E0
4.352630615E0,4.785156250E-2,2.421539307E0,9.037689209E0
4.354980468E0,4.307556152E-2,2.421539307E0,9.293716431E0
4.357299804E0,4.791259766E-3,2.411972046E0,9.566513062E0
4.359649658E0,-7.171630859E-3,2.407180786E0,9.817749023E0
4.361999511E0,4.791259766E-3,2.395217896E0,1.010728455E1
4.364318847E0,4.785156250E-2,2.392822266E0,1.039682007E1
4.366668701E0,4.785156250E-2,2.364105225E0,1.066241455E1
4.368988037E0,9.092712402E-2,2.321044922E0,1.088973999E1
4.371337890E0,1.555328369E-1,2.270782471E0,1.111944580E1
4.373657226E0,2.440643311E-1,2.230117798E0,1.131565857E1
4.376007080E0,3.325958252E-1,2.191818237E0,1.147358704E1
4.378356933E0,4.187469482E-1,2.127212524E0,1.160758972E1
4.380676269E0,4.905242920E-1,2.091323853E0,1.171286011E1
4.383026123E0,5.814514160E-1,2.012359619E0,1.180857849E1
4.385345459E0,6.484527588E-1,1.976470947E0,1.185165405E1
4.387695312E0,7.106628418E-1,1.911865234E0,1.187797546E1
4.390014648E0,7.728881836E-1,1.856826782E0,1.187797546E1
4.392364502E0,8.255310059E-1,1.830505371E0,1.186122131E1
4.394683837E0,8.494567871E-1,1.808975220E0,1.184208679E1
4.397033691E0,8.925170898E-1,1.797012329E0,1.180140686E1
4.399383545E0,9.092712402E-1,1.789825439E0,1.177986145E1
4.401702880E0,9.164581299E-1,1.804183960E0,1.171286011E1
4.404052734E0,9.212341309E-1,1.808975220E0,1.166023254E1
4.406372070E0,9.451599121E-1,1.813766479E0,1.159083557E1
4.408721923E0,9.595184326E-1,1.832901001E0,1.153340149E1
4.411041259E0,9.690856934E-1,1.837692261E0,1.147836304E1
4.413391113E0,1.016952515E0,1.818542480E0,1.139222717E1
4.415710449E0,1.062408447E0,1.818542480E0,1.135394287E1
4.418060302E0,1.146163940E0,1.806579590E0,1.131326294E1
4.420410156E0,1.227523804E0,1.775466919E0,1.126541138E1
4.422729492E0,1.296905518E0,1.761123657E0,1.123908997E1
4.425079345E0,1.361511230E0,1.741973877E0,1.123190308E1
4.427398681E0,1.399795532E0,1.732406616E0,1.121037292E1
4.429748535E0,1.466796875E0,1.696517944E0,1.121994019E1
4.432067871E0,1.512268066E0,1.710861206E0,1.124388123E1
4.434417724E0,1.562515259E0,1.710861206E0,1.125344849E1
4.436737060E0,1.591232300E0,1.708480835E0,1.127258301E1
4.439086914E0,1.615158081E0,1.698898315E0,1.129173279E1
4.441406250E0,1.615158081E0,1.732406616E0,1.128694153E1
4.443756103E0,1.612762451E0,1.751541138E0,1.129890442E1
4.446105957E0,1.610366821E0,1.751541138E0,1.126780701E1
4.448425293E0,1.619934082E0,1.773086548E0,1.124626160E1
4.450775146E0,1.634292603E0,1.765899658E0,1.121994019E1
4.453094482E0,1.619934082E0,1.770690918E0,1.118405151E1
4.455444336E0,1.598403931E0,1.768295288E0,1.115773010E1
4.457763671E0,1.584045410E0,1.777862549E0,1.111944580E1
4.460113525E0,1.574478149E0,1.761123657E0,1.107398987E1
4.462432861E0,1.543365479E0,1.768295288E0,1.103808594E1
4.464782714E0,1.512268066E0,1.758728027E0,1.103091431E1
4.467132568E0,1.488342285E0,1.753936768E0,1.097348022E1
4.469451904E0,1.473983765E0,1.756332397E0,1.090887451E1
4.471801757E0,1.454833984E0,1.751541138E0,1.087777710E1
4.474121093E0,1.447662354E0,1.722839355E0,1.083230591E1
4.476470947E0,1.459625244E0,1.706085205E0,1.076770020E1
4.478790283E0,1.442871094E0,1.682159424E0,1.071984863E1
4.481140136E0,1.402191162E0,1.667800903E0,1.066241455E1
4.483459472E0,1.373474121E0,1.646255493E0,1.061216736E1
4.485809326E0,1.361511230E0,1.648651123E0,1.060499573E1
4.488128662E0,1.339981079E0,1.612762451E0,1.056909180E1
4.490478515E0,1.316055298E0,1.603195190E0,1.053320312E1
4.492828369E0,1.301696777E0,1.598403931E0,1.049012756E1
4.495147705E0,1.275375366E0,1.572082520E0,1.047338867E1
4.497497558E0,1.253845215E0,1.538589478E0,1.041117859E1
4.499816894E0,1.229904175E0,1.533798218E0,1.035134888E1
4.502166748E0,1.186843872E0,1.526626587E0,1.029631042E1
4.504486084E0,1.150955200E0,1.505081177E0,1.019821167E1
4.506835937E0,1.112655640E0,1.512268066E0,1.012881470E1
4.509155273E0,1.112655640E0,1.505081177E0,1.002352905E1
4.511505127E0,1.074371338E0,1.519439697E0,9.927825928E0
4.513824462E0,1.055236816E0,1.529006958E0,9.848861694E0
4.516174316E0,1.033706665E0,1.524230957E0,9.753143311E0
4.518524170E0,1.016952515E0,1.507476807E0,9.650253296E0
4.520843505E0,1.024124146E0,1.531402588E0,9.535400391E0
4.523193359E0,1.012161255E0,1.543365479E0,9.394226074E0
4.525512695E0,1.026519775E0,1.567306519E0,9.262619019E0
4.527862548E0,1.033706665E0,1.588836670E0,9.169296265E0
4.530181884E0,1.057632446E0,1.615158081E0,9.071197510E0
4.532531738E0,1.069595337E0,1.651046753E0,8.965911865E0
4.534851074E0,1.086334229E0,1.679763794E0,8.851058960E0
4.537200927E0,1.129409790E0,1.703689575E0,8.755340576E0
4.539520263E0,1.158126831E0,1.734802246E0,8.666809082E0
4.541870117E0,1.194015503E0,1.782653809E0,8.599807739E0
4.544219970E0,1.217941284E0,1.811370850E0,8.559127808E0
4.546539306E0,1.232299805E0,1.830505371E0,8.472991943E0
4.548889160E0,1.256225586E0,1.842468262E0,8.410766602E0
4.551208496E0,1.280166626E0,1.844863892E0,8.389236450E0
4.553558349E0,1.284942627E0,1.852050781E0,8.362915039E0
4.555877685E0,1.328018188E0,1.856826782E0,8.341384888E0
4.558227539E0,1.335189819E0,1.859222412E0,8.341384888E0
4.560577392E0,1.349548340E0,1.864013672E0,8.374877930E0
4.562927246E0,1.363906860E0,1.885543823E0,8.417953491E0
4.565246582E0,1.368698120E0,1.892715454E0,8.461029053E0
4.567596435E0,1.395019531E0,1.907073975E0,8.525634766E0
4.569946289E0,1.411758423E0,1.921432495E0,8.585449219E0
4.572265625E0,1.426116943E0,1.926223755E0,8.640487671E0
4.574615478E0,1.459625244E0,1.933395386E0,8.724227905E0
4.576934814E0,1.476364136E0,1.916656494E0,8.798416138E0
4.579284668E0,1.483551025E0,1.899902344E0,8.874984741E0
4.581604003E0,1.485946655E0,1.892715454E0,8.939590454E0
4.583953857E0,1.509872437E0,1.875976562E0,9.006591797E0
4.586273193E0,1.540985107E0,1.859222412E0,9.061614990E0
4.588623046E0,1.560119629E0,1.823333740E0,9.128616333E0
4.590942382E0,1.584045410E0,1.801788330E0,9.166900635E0
4.593292236E0,1.593612671E0,1.775466919E0,9.217147827E0
4.595642089E0,1.612762451E0,1.751541138E0,9.245864868E0
4.597961425E0,1.600799561E0,1.734802246E0,9.250656128E0
4.600311279E0,1.603195190E0,1.686935425E0,9.267395020E0
4.602630615E0,1.596008301E0,1.660614014E0,9.267395020E0
4.604980468E0,1.615158081E0,1.636688232E0,9.253051758E0
4.607299804E0,1.600799561E0,1.603195190E0,9.241088867E0
4.609649658E0,1.579269409E0,1.588836670E0,9.241088867E0
4.611968994E0,1.598403931E0,1.557723999E0,9.233901978E0
4.614318847E0,1.593612671E0,1.548156738E0,9.229110718E0
4.616668701E0,1.588836670E0,1.524230957E0,9.224334717E0
4.618988037E0,1.569686890E0,1.521835327E0,9.224334717E0
4.621337890E0,1.586441040E0,1.507476807E0,9.217147827E0
4.623657226E0,1.579269409E0,1.524230957E0,9.226730347E0
4.626007080E0,1.603195190E0,1.538589478E0,9.231506348E0
4.628326416E0,1.624725342E0,1.543365479E0,9.212371826E0
4.630676269E0,1.648651123E0,1.562515259E0,9.202789307E0
4.632995605E0,1.684539795E0,1.569686890E0,9.198013306E0
4.635345459E0,1.708480835E0,1.622329712E0,9.188446045E0
4.637664795E0,1.732406616E0,1.667800903E0,9.183654785E0
4.640014648E0,1.775466919E0,1.722839355E0,9.169296265E0
4.642364502E0,1.816146851E0,1.773086548E0,9.164505005E0
4.644683837E0,1.861618042E0,1.816146851E0,9.154937744E0
4.647033691E0,1.916656494E0,1.875976562E0,9.159729004E0
4.649353027E0,1.966903687E0,1.919036865E0,9.154937744E0
4.651702880E0,2.024322510E0,1.962112427E0,9.135803223E0
4.654022216E0,2.088928223E0,1.986038208E0,9.116653442E0
4.656372070E0,2.175079346E0,2.036285400E0,9.083160400E0
4.658691406E0,2.242080688E0,2.062606812E0,9.056838989E0
4.661041259E0,2.316253662E0,2.100891113E0,9.013763428E0
4.663391113E0,2.390426636E0,2.117645264E0,8.958724976E0
4.665710449E0,2.447860718E0,2.129608154E0,8.896514893E0
4.668060302E0,2.490921021E0,2.139190674E0,8.834304810E0
4.670379638E0,2.524429321E0,2.158325195E0,8.786437988E0
4.672729492E0,2.545959473E0,2.172683716E0,8.714660645E0
4.675048828E0,2.562713623E0,2.177474976E0,8.611770630E0
4.677398681E0,2.560317993E0,2.160720825E0,8.523239136E0
4.679718017E0,2.572280884E0,2.153533936E0,8.410766602E0
4.682067871E0,2.557922363E0,2.148757935E0,8.288742065E0
4.684417724E0,2.538787842E0,2.115249634E0,8.149948120E0
4.686737060E0,2.507675171E0,2.086547852E0,8.044662476E0
4.689086914E0,2.490921021E0,2.060226440E0,7.920242310E0
4.691406250E0,2.438293457E0,2.036285400E0,7.793426514E0
4.693756103E0,2.404785156E0,2.014755249E0,7.683349609E0
4.696075439E0,2.354537964E0,1.998001099E0,7.623535156E0
4.698425293E0,2.275573730E0,1.976470947E0,7.551742554E0
4.700744628E0,2.213363647E0,1.986038208E0,7.477569580E0
4.703094482E0,2.143966675E0,1.969299316E0,7.448852539E0
4.705444336E0,2.086547852E0,1.986038208E0,7.417755127E0
4.707763671E0,2.060226440E0,1.998001099E0,7.415359497E0
4.710113525E0,1.998001099E0,1.990829468E0,7.441680908E0
4.712432861E0,1.952545166E0,1.988433838E0,7.465606689E0
4.714782714E0,1.909469604E0,1.983642578E0,7.530212402E0
4.717102050E0,1.866409302E0,1.971679688E0,7.587646484E0
4.719451904E0,1.842468262E0,1.964508057E0,7.673782349E0
4.721771240E0,1.816146851E0,1.945358276E0,7.771881104E0
4.724121093E0,1.797012329E0,1.947753906E0,7.869995117E0
4.726470947E0,1.773086548E0,1.923828125E0,7.977676392E0
4.728790283E0,1.746765137E0,1.904693604E0,8.097305298E0
4.731140136E0,1.720443726E0,1.883148193E0,8.193023682E0
4.733459472E0,1.684539795E0,1.837692261E0,8.286346436E0
4.735809326E0,1.641479492E0,1.792221069E0,8.353347778E0
4.738128662E0,1.591232300E0,1.751541138E0,8.432312012E0
4.740478515E0,1.536193848E0,1.739578247E0,8.482559204E0
4.742828369E0,1.481155396E0,1.708480835E0,8.537597656E0
4.745147705E0,1.423736572E0,1.667800903E0,8.597412109E0
4.747497558E0,1.335189819E0,1.651046753E0,8.662017822E0
4.749816894E0,1.261016846E0,1.629516602E0,8.702697754E0
4.752166748E0,1.170089722E0,1.617553711E0,8.764907837E0
4.754486084E0,1.098312378E0,1.617553711E0,8.805587769E0
4.756835937E0,1.021728516E0,1.598403931E0,8.858230591E0
4.759155273E0,9.475555420E-1,1.591232300E0,8.906082153E0
4.761505127E0,8.925170898E-1,1.569686890E0,8.965911865E0
4.763854980E0,8.494567871E-1,1.552947998E0,9.004196167E0
4.766174316E0,8.135528564E-1,1.533798218E0,9.056838989E0
4.768524170E0,7.896270752E-1,1.512268066E0,9.087936401E0
4.770843505E0,7.776641846E-1,1.509872437E0,9.109481812E0
4.773193359E0,7.920227051E-1,1.485946655E0,9.150161743E0
4.775512695E0,8.111724854E-1,1.471588135E0,9.147766113E0
4.777862548E0,8.087768555E-1,1.462020874E0,9.150161743E0
4.780181884E0,8.255310059E-1,1.440475464E0,9.147766113E0
4.782531738E0,8.374938965E-1,1.440475464E0,9.128616333E0
4.784881591E0,8.733825684E-1,1.433303833E0,9.095123291E0
4.787200927E0,8.901367188E-1,1.430908203E0,9.066406250E0
4.789520263E0,9.140625000E-1,1.440475464E0,9.018554688E0
4.791870117E0,9.379882812E-1,1.438079834E0,8.941986084E0
4.794219970E0,9.643096924E-1,1.435699463E0,8.882156372E0
4.796539306E0,9.834442139E-1,1.430908203E0,8.812759399E0
4.798889160E0,1.021728516E0,1.430908203E0,8.726623535E0
4.801208496E0,1.028915405E0,1.442871094E0,8.633300781E0
4.803558349E0,1.045669556E0,1.433303833E0,8.554336548E0
4.805877685E0,1.060012817E0,1.421340942E0,8.499313354E0
4.808227539E0,1.074371338E0,1.404586792E0,8.439483643E0
4.810577392E0,1.076766968E0,1.433303833E0,8.386840820E0
4.812896728E0,1.100692749E0,1.418945312E0,8.353347778E0
4.815246582E0,1.117446899E0,1.423736572E0,8.324630737E0
4.817565918E0,1.127014160E0,1.440475464E0,8.329421997E0
4.819915771E0,1.134201050E0,1.445266724E0,8.324630737E0
4.822235107E0,1.146163940E0,1.447662354E0,8.324630737E0
4.824584961E0,1.162918091E0,1.452438354E0,8.343780518E0
4.826904296E0,1.160522461E0,1.452438354E0,8.372482300E0
4.829254150E0,1.148559570E0,1.438079834E0,8.429916382E0
4.831604003E0,1.148559570E0,1.447662354E0,8.513656616E0
4.833923339E0,1.150955200E0,1.428512573E0,8.611770630E0
4.836273193E0,1.165298462E0,1.438079834E0,8.755340576E0
4.838592529E0,1.210769653E0,1.423736572E0,8.913269043E0
4.840942382E0,1.251449585E0,1.428512573E0,9.097518921E0
